time,seconds_elapsed,z,y,x
1647770386051320000,0.009320068359375,-0.04908873281776905,-0.3583127951607108,-0.5756421253994107
1647770386061371100,0.01937109375,0.05565583624839782,-0.6687105774581432,-0.5537359985396265
1647770386071422200,0.029422119140625,0.741572984573245,-0.5984530921444297,-0.25915406340286135
1647770386081473000,0.03947314453125,1.0247054510653018,-0.5695061068624258,-0.14145152082517742
1647770386091524000,0.049524169921875,1.3855769907981157,-0.47338528149574993,-0.2831274980559945
1647770386101575200,0.0595751953125,0.49084407355785364,-0.25573621778339145,-0.27702158239632846
1647770386111626200,0.069626220703125,-0.8535007431417703,-0.08176379871219396,0.0906529153496027
1647770386121677000,0.079677001953125,-0.47326983842253684,-0.20795243008434772,0.1524957696698606
1647770386131727000,0.08972705078125,-0.5080471372932195,-1.2347697587370872,0.18937573990821838
1647770386141778000,0.09977783203125,-0.7801596125990152,-1.9114754266023635,0.6904676512360572
1647770386151829000,0.1098291015625,-0.7634393639445305,-1.7215321159392594,0.9217077256664633
1647770386161880000,0.119880126953125,-0.6671522421002387,-1.2093787123709916,1.0059987047687173
1647770386171931100,0.12993115234375,-0.611701573035121,-0.6714546154692769,0.753829824078083
1647770386181982000,0.13998193359375,-0.45583588854074475,-0.2722700039550662,0.1885672000043094
1647770386192033000,0.150032958984375,-0.06168927119374275,-0.26563918763846156,-0.21196108120381832
1647770386202084000,0.160083984375,0.23492460816204547,-0.5492559305161238,-0.3490767647817731
1647770386212134100,0.170134033203125,0.38781916789114473,-0.794772367580235,-0.30137890180051324
1647770386222185200,0.180185302734375,0.33337270743250846,-0.8033762375354766,-0.2172435516513884
1647770386232236000,0.190236083984375,0.16672785477042198,-0.6694295393824576,-0.23570143775343894
1647770386242287000,0.200287109375,0.051342649224400516,-0.47387043466418977,-0.2650599264457822
1647770386252338200,0.210338134765625,0.0959942763775587,-0.279734056225419,-0.28813217447549105
1647770386262389200,0.22038916015625,0.3226905698984861,-0.27510844225138426,-0.17493731858059763
1647770386272440300,0.2304404296875,0.5865303068995475,-0.3620677637800574,-0.03173910021856427
1647770386282491100,0.2404912109375,0.8401356501340865,-0.418650944006443,-0.06672872666567564
1647770386292541000,0.250541015625,0.9649404259324074,-0.40355420490056276,0.02307502450868487
1647770386302592000,0.260592041015625,0.9181792592793703,-0.36515783874988555,0.013012041786313057
1647770386312643000,0.27064306640625,0.8394827391833066,-0.2208586734086275,-0.08477817809730767
1647770386322694100,0.280694091796875,0.6723340286523103,-0.01928337714076042,-0.29824089603573084
1647770386332745000,0.290744873046875,0.3645534431159496,0.08830313735306262,-0.5257381306760013
1647770386342796000,0.300796142578125,0.07113923658430577,0.15396774191856383,-0.6160255737140774
1647770386352847000,0.31084716796875,-0.11177402931153774,0.09096651134341954,-0.4672526239596307
1647770386362898200,0.320898193359375,-0.060545361855626104,-0.057797232191264626,-0.14408786067813634
1647770386372948200,0.3309482421875,0.08874035972654819,-0.18305179758369922,0.08973024754673242
1647770386382999300,0.340999267578125,0.07179390110075473,-0.2645855869323015,0.29465836137384177
1647770386393050000,0.351050048828125,0.2946580691128969,-0.4265516341283917,0.36996231642216443
1647770386403101200,0.36110107421875,0.8081997121691703,-0.605341682614386,0.29964725570231676
1647770386413152000,0.371152099609375,1.1737053414434193,-0.827978763872385,0.17452449999600647
1647770386423203000,0.381203125,1.288127839437127,-1.0636959837168454,0.20989976475983857
1647770386433254000,0.39125390625,1.1239566834121941,-1.0869038408249616,0.3191473443336785
1647770386443305000,0.401304931640625,0.8952081335365771,-0.8850304383933544,0.3078263243742287
1647770386453356000,0.41135595703125,0.48660570533573627,-0.6383607396408915,0.19552344888299703
1647770386463406000,0.421406005859375,-0.24599603727459907,-0.46874943838864563,0.09098886930570006
1647770386473457200,0.43145703125,-0.6827279968947172,-0.36029520114958286,0.18484598752409218
1647770386483508200,0.44150830078125,-0.8797416843354702,-0.42642157800793645,0.5243789711520076
1647770386493559000,0.45155908203125,-0.8170294998347759,-0.5496379155710339,0.8913874062046409
1647770386503610000,0.461610107421875,-0.5980535714328289,-0.6973842987567186,1.189741407226026
1647770386513661200,0.4716611328125,-0.21132745947539805,-0.9874000950217247,1.1025070681482554
1647770386523712300,0.481712158203125,0.2847936777025461,-1.1172016561940312,0.8035279209658504
1647770386533763000,0.49176318359375,0.39896716937124727,-1.2882923823490737,0.6160802265107631
1647770386543812900,0.501812744140625,0.5093529591947794,-1.5323808324366808,0.48362639726400375
1647770386553864000,0.511864013671875,0.8121861514568328,-1.5528860064573584,0.36167262698262925
1647770386563915000,0.5219150390625,1.122998652034998,-1.5480300908587872,0.1558712374523282
1647770386573966000,0.531966064453125,1.2090139707118273,-1.631278575170785,-0.0663949646666646
1647770386584017200,0.54201708984375,1.322192606124282,-1.6725635023698209,-0.16725304768830537
1647770386594068000,0.55206787109375,1.33193132532835,-1.70835918450281,-0.19280512983500955
1647770386604119000,0.562119140625,1.1415747576892374,-1.6930065709397195,-0.278562966619432
1647770386614170000,0.572170166015625,0.8471271164566277,-1.517283216547966,-0.470468225005269
1647770386624220200,0.58222021484375,0.6425111373186111,-1.2725970928281545,-0.5511202630832791
1647770386634271200,0.592271240234375,0.515455952244997,-1.1410074791952967,-0.523771945169568
1647770386644322000,0.602322021484375,0.5579442638844251,-1.2301073198840022,-0.5189648371487856
1647770386654373000,0.612373046875,0.6481570342510938,-1.345017893655598,-0.5771861399710178
1647770386664424200,0.622424072265625,0.7047410912603139,-1.391572139559686,-0.6378516210749745
1647770386674475300,0.632475341796875,0.5048036253273487,-1.3495365401238202,-0.6734098411902785
1647770386684526000,0.642526123046875,0.0966699836820364,-1.2199442377880214,-0.7279296591460704
1647770386694577000,0.652576904296875,-0.17701894716024397,-1.0587915528014302,-0.7639452676400542
1647770386704628000,0.6626279296875,-0.2377367429733276,-1.0344196203500031,-0.6316308468639851
1647770386714678000,0.672677978515625,-0.11246259609758853,-1.079543833450973,-0.6244678233668208
1647770386724729000,0.68272900390625,-0.015639467680454253,-1.1106155558019877,-0.68064329957515
1647770386734780200,0.6927802734375,0.09873977569341659,-1.1441954615816474,-0.772757811909914
1647770386744831000,0.7028310546875,0.40752573888003824,-1.1654057151317596,-0.6787962104037404
1647770386754882000,0.712882080078125,0.6103554191231727,-1.2092156307637691,-0.4430307675033808
1647770386764933000,0.72293310546875,0.5469307024389505,-1.3213628773018717,-0.2380208206117153
1647770386774984200,0.732984130859375,0.3235977478712797,-1.343610364945233,-0.09204933814406395
1647770386785035000,0.743034912109375,0.0532429298877716,-1.2113017893880604,-0.22885142572820186
1647770386795085300,0.753085205078125,0.002203647524118423,-0.9690917003929614,-0.4944499890953302
1647770386805136100,0.76313623046875,-0.027993922340869903,-0.8610776081368327,-0.6165238786250352
1647770386815187000,0.77318701171875,-0.16506781260371206,-1.0407108294487,-0.42730186797380443
1647770386825238000,0.783238037109375,-0.8263099538773298,-1.4840522703364492,0.618367168404162
1647770386835289000,0.7932890625,-0.8328022385060787,-1.8324702789485454,0.9139062581352889
1647770386845340000,0.80333984375,-0.13299626556038854,-1.7976134851008652,0.6437605528578162
1647770386855391000,0.813390869140625,-0.2695779883921146,-1.7465347475096582,-0.3874173090919852
1647770386865442000,0.823442138671875,-0.2835813793033361,-1.3898834558203816,-0.9867078749738633
1647770386875493000,0.8334931640625,-0.014206220006942749,-0.9176178260043263,-0.9938564315542578
1647770386885543200,0.843543212890625,-0.013563830450177191,-0.7411550514221191,-0.8887094191670417
1647770386895594200,0.85359423828125,-0.06550853722095488,-0.8200421256542205,-0.6622903351522982
1647770386905645000,0.86364501953125,-0.027951252242922782,-1.0748916237309574,-0.3930746042013168
1647770386915696000,0.873696044921875,-0.1672626922994852,-1.2828189193740487,-0.5692490633614361
1647770386925747000,0.883746826171875,-0.1421007785141468,-1.1564631147414446,-0.8302066690549254
1647770386935798000,0.893798095703125,-0.32959085080623624,-0.9856047360375523,-0.68207464755252
1647770386945848800,0.903848876953125,-1.030913658055663,-1.0660998299881814,-0.5007379833236336
1647770386955900000,0.91389990234375,-1.9060627539038657,-0.9640957918018102,-0.3658329615324735
1647770386965950000,0.923949951171875,-2.6658623000413177,-0.7205307810664177,-0.3206643247678876
1647770386976001000,0.9340009765625,-3.273922301703691,-0.42140842602103945,-0.3700182843931019
1647770386986052000,0.944052001953125,-3.647140697312355,-0.17208309819325804,-0.41380481914952394
1647770386996103200,0.954103271484375,-3.691811029165983,0.026215076100081204,-0.5051560920268297
1647770387006154000,0.964154052734375,-3.2922534926861524,0.23765330247357486,-0.778261377762258
1647770387016205000,0.974205078125,-2.6350691023707387,0.33024960697591305,-1.031252534621209
1647770387026256100,0.984256103515625,-2.0189520509809253,0.3526946630179882,-1.269617784756422
1647770387036307200,0.99430712890625,-1.5474714340627194,0.4063762765839696,-1.5091307436220347
1647770387046358000,1.00435791015625,-1.1620546511381864,0.4424208189114928,-1.7285101382583379
1647770387056407800,1.01440771484375,-0.8538169694840908,0.42970454520136114,-1.7489421009123325
1647770387066459000,1.024458984375,-0.5448030427604913,0.3232642781332135,-1.523338571064174
1647770387076510000,1.034510009765625,-0.335130364754796,0.18456366345137357,-1.2009981297776102
1647770387086561000,1.04456103515625,-0.19330840318202971,0.23871727844327686,-1.0772487082511186
1647770387096612000,1.054612060546875,-0.23299802401363848,0.3195645468324423,-0.8417278877615928
1647770387106663000,1.064662841796875,-0.3352519453078508,0.25684154867678877,-0.3774102943405509
1647770387116714000,1.0747138671875,-0.30205811623632906,0.1502402458280325,0.14246142852008342
1647770387126765000,1.08476513671875,-0.21400749233961103,-0.07632336122393607,0.7603576184116303
1647770387136815000,1.094815185546875,-0.13627309527397155,-0.2968275221064687,1.2377933443419635
1647770387146866200,1.1048662109375,-0.07899053460657596,-0.47804158286899323,1.5057783644542098
1647770387156917000,1.1149169921875,0.04681552718877792,-0.6226873696908355,1.5075781073525547
1647770387166968000,1.124968017578125,0.1246773500263691,-0.38993104547858237,1.0809458092033863
1647770387177019100,1.13501904296875,-0.07261983053088188,0.12449001076072454,0.23026626096218822
1647770387187070000,1.145070068359375,0.07402151402235031,0.5752528338208794,-0.36047815650105475
1647770387197121000,1.15512109375,0.6832195798039435,0.8139563759997487,-0.5633911311134696
1647770387207171800,1.165171875,1.4099287572443484,1.0147507510229945,-0.6447390425011515
1647770387217223000,1.175222900390625,2.076210646250844,1.3674594425663351,-0.7512801395952701
1647770387227273000,1.18527294921875,2.5263433547139167,1.2567112491711974,-0.8572903446830809
1647770387237324000,1.195323974609375,2.8201141195982693,1.0465081175506115,-0.9700061848893761
1647770387247375000,1.205375,3.248963217014074,0.9995336004078388,-1.1555679194673896
1647770387257426000,1.215426025390625,3.920110666230321,0.9044394877403974,-1.1892140223510563
1647770387267477000,1.22547705078125,3.292507759708166,0.5029863467723131,-0.42965296114459633
1647770387277528000,1.235528076171875,2.83484640930593,0.09922375981807709,0.29278292289078234
1647770387287579100,1.2455791015625,2.6681886971622704,-0.2975684036016464,0.8179603509441018
1647770387297630000,1.2556298828125,2.55063783801496,-0.4172960222661495,1.0555769746690988
1647770387307680000,1.265679931640625,2.684478737705946,-0.37595220448672767,1.3321315240755676
1647770387317730800,1.275730712890625,2.3041280059993268,-0.6480021359503269,1.5335302947327494
1647770387327782000,1.285781982421875,1.8079975164711475,-0.6439844247415661,1.4215119352713226
1647770387337833000,1.2958330078125,1.7309335660129785,-0.5961433538973331,1.7214312859132885
1647770387347884000,1.305884033203125,1.6147043108582495,-0.9141004655331373,2.1138030025422574
1647770387357934800,1.315934814453125,1.422169814658165,-0.6814478939563036,2.324512183988839
1647770387367986000,1.32598583984375,1.385986740642786,-0.19963702168166636,2.381637800528854
1647770387378037000,1.336037109375,1.199694938224554,-0.015503566341102122,2.501155721965432
1647770387388087000,1.346087158203125,1.0603501804202795,-0.001003039562702179,2.5173499009191986
1647770387398138000,1.35613818359375,0.9882558350682258,0.017382804216444493,2.3934113865613935
1647770387408189200,1.366189208984375,0.8225473864734172,0.09108546154797077,2.333166322826594
1647770387418240000,1.376239990234375,0.7046183416634798,-0.16846563834846018,2.2988624866865575
1647770387428291000,1.386291015625,0.22489596610069273,-0.0016527356430888175,1.8900690659582613
1647770387438342100,1.396342041015625,-0.26033552827239037,0.35307021833211183,1.5115959646917878
1647770387448393200,1.406393310546875,-0.4846767830997705,0.34379268689900633,1.420461257174611
1647770387458444000,1.416444091796875,-0.7815951983600854,0.06656622958034276,1.553749199157953
1647770387468494800,1.426494873046875,-1.1600631850600243,-0.4550935457408428,1.8869857129901646
1647770387478545000,1.436544921875,-1.5092863725751637,-1.112403316001594,2.5113769639894366
1647770387488596000,1.446595947265625,-1.7919775250405072,-1.5767328921213746,3.068688190667331
1647770387498647000,1.45664697265625,-1.9398381822556257,-1.8449445605963468,3.3960686719477176
1647770387508698000,1.466697998046875,-2.0087784474909305,-1.9216691960975527,3.4247026457577943
1647770387518749000,1.4767490234375,-2.3019611833542584,-1.5676061673358082,2.972701805335283
1647770387528800000,1.486800048828125,-2.7322861985415217,-0.8898425148501992,2.0457301677912474
1647770387538851000,1.49685107421875,-3.08306012263,-0.08290975387692451,1.122839662081003
1647770387548902100,1.506902099609375,-3.179152598685026,0.5840224157318472,0.21622253804057837
1647770387558952200,1.5169521484375,-2.8850854812026023,0.9371601463422179,-0.731779904833436
1647770387569003000,1.5270029296875,-2.4563334144204854,1.0987953541487454,-1.458904677337408
1647770387579054000,1.53705419921875,-1.9142577507972716,1.0256520842656494,-1.7074346170037984
1647770387589105000,1.54710498046875,-1.5611504153251647,0.6340948988899588,-1.4363883096247911
1647770387599156000,1.557156005859375,-1.5431442185133695,0.3394225089907646,-1.0514332989931106
1647770387609207000,1.56720703125,-1.4579092365592716,0.17382278146743774,-0.8085232450351119
1647770387619257900,1.5772578125,-1.3084803071141242,0.029161504815518855,-0.6949018342912197
1647770387629309000,1.587308837890625,-1.1833224800944329,-0.12663695966154337,-0.6548135695308447
1647770387639359000,1.59735888671875,-0.9451648813605308,-0.042241935662925244,-0.9628145198196172
1647770387649410000,1.60741015625,-0.6092869131088257,0.28151334085762497,-1.0855468732580542
1647770387659461000,1.617461181640625,-0.19829905107617377,0.49578971326649185,-1.1007885737925767
1647770387669512000,1.627511962890625,0.13547814550399778,0.4630313530027866,-1.0647352636367082
1647770387679563000,1.63756298828125,0.6725941408932209,0.34789164665043354,-1.15497053809613
1647770387689614000,1.647614013671875,1.1910258940786123,0.153644793574512,-1.23328185826689
1647770387699665200,1.6576650390625,1.612030707734823,0.07863748338520526,-1.275681030318141
1647770387709716000,1.667716064453125,1.9853917266845702,0.2195207028031349,-1.4986699937537311
1647770387719767000,1.67776708984375,2.2534388522475957,0.48572950702309603,-1.964371442748606
1647770387729816800,1.68781689453125,2.440832478427887,0.7334288410842418,-2.3664231341317294
1647770387739868000,1.697867919921875,2.6384160747110843,0.981323405456543,-2.515344406315684
1647770387749919000,1.7079189453125,2.6618811214506626,1.0008750781446696,-2.588361127209663
1647770387759970000,1.717969970703125,2.477165774568915,0.7897475251555442,-2.5799884356617926
1647770387770020900,1.728020751953125,2.5433710618823766,0.6707298083260655,-2.5082833818882704
1647770387780072000,1.738072021484375,2.78706525195539,0.5009007726699114,-2.4495339635387063
1647770387790123000,1.748123046875,2.9676667337775227,0.4412751560077071,-2.4011114395447075
1647770387800174000,1.758174072265625,2.8915917943567035,0.3832984755963087,-2.1640692547067997
1647770387810225000,1.768224853515625,2.6673598451226948,0.3439616137251258,-1.9474911812268196
1647770387820275000,1.77827490234375,2.6498481538295744,0.24013386724293231,-1.906256230649352
1647770387830326000,1.788325927734375,2.5216642569869756,0.10927753632068633,-2.0199935228578747
1647770387840377000,1.798377197265625,2.210117596915364,0.06922901904881,-2.060674200553447
1647770387850428200,1.80842822265625,1.8655834439992904,0.2315425645083189,-2.082802445731312
1647770387860479200,1.818479248046875,1.2910276525318622,0.24987550905644892,-2.20661499562189
1647770387870529800,1.82852978515625,0.922564342495799,0.11814268756061792,-2.2234847357496617
1647770387880580900,1.838580810546875,0.8275041320979595,0.018495441633462905,-2.093524330753833
1647770387890632000,1.8486318359375,0.7563526205539703,-0.20299393089413642,-1.9110620234958826
1647770387900682000,1.858681884765625,0.6348258435130119,-0.37520577003359795,-1.9350338507138192
1647770387910733000,1.868733154296875,0.4489636646836996,-0.42955461533665656,-1.9767381723687052
1647770387920784100,1.8787841796875,0.10003156906962395,-0.45343379583507776,-1.950587247546017
1647770387930835200,1.888835205078125,-0.38504268891513344,-0.4466834447920322,-1.8261426833622156
1647770387940886000,1.898885986328125,-1.0537672948986292,-0.4578858068078756,-1.703901182180643
1647770387950937000,1.90893701171875,-1.7858219250202179,-0.5500212158001959,-1.655184643676132
1647770387960988200,1.91898828125,-2.3797277291238306,-0.805690067435801,-1.7614166748210787
1647770387971039000,1.9290390625,-2.6965625587314364,-1.0223507046326994,-1.7754753030508756
1647770387981089000,1.939089111328125,-3.085246234497428,-1.0438884365715086,-1.7113643576681612
1647770387991140000,1.94914013671875,-3.515857080888748,-0.9641513213813304,-1.6988230021335184
1647770388001191200,1.959191162109375,-3.965436831644177,-0.7852136811181902,-1.849071285137534
1647770388011242200,1.9692421875,-4.330170307502151,-0.6506833378583192,-2.0604666952826083
1647770388021293000,1.97929296875,-4.491079246860743,-0.13848726419210433,-2.28559734692201
1647770388031344000,1.98934423828125,-4.702237194988132,0.3730142513386905,-2.4355326184540984
1647770388041395200,1.999395263671875,-5.014541979950666,0.3242706786967814,-2.2012031997062262
1647770388051446300,2.0094462890625,-5.117827582380175,0.5797913540333509,-1.991300366206467
1647770388061496000,2.01949609375,-5.070343362149596,0.9284496011421084,-1.9614944260075686
1647770388071547100,2.029547119140625,-4.963941089004278,0.9004832974605261,-1.9695520602568983
1647770388081598000,2.039597900390625,-4.284378862664103,0.9024722793206572,-1.9186757133699952
1647770388091649000,2.04964892578125,-3.337780149108171,0.8677990253463387,-1.8493140078522263
1647770388101700000,2.0597001953125,-2.5104133796542882,0.8012773655600846,-1.8370640364795923
1647770388111751200,2.069751220703125,-2.0037164879262446,0.6627084144338965,-1.798864508075267
1647770388121802000,2.079802001953125,-1.8531793049782515,0.6387538306117058,-1.6430457314625382
1647770388131853000,2.08985302734375,-2.016244545587897,0.678607555963844,-1.4191282550051807
1647770388141903000,2.099903076171875,-2.382187397235632,0.8538295367047191,-1.148033651505038
1647770388151954200,2.1099541015625,-2.76921629153192,1.1365618979632854,-1.0144247339390218
1647770388162005200,2.120005126953125,-2.9949726738542317,1.3032131803661584,-0.9701274731814861
1647770388172056300,2.130056396484375,-2.929536032825708,1.545044353046268,-0.7163092178486287
1647770388182107100,2.140107177734375,-2.624507376345992,1.730051376350969,-0.5996300269693136
1647770388192158200,2.150158203125,-1.9811060121893882,1.8669364660434424,-0.6991900330044328
1647770388202209300,2.160209228515625,-1.177439851796627,1.8252924962736665,-0.4692287463381886
1647770388212260400,2.17026025390625,-0.5181605350285768,1.5648247199237346,-0.07218421559259296
1647770388222311000,2.180310791015625,0.0913672010987997,1.2803724030047654,0.23357143998742103
1647770388232361000,2.19036083984375,0.6262199277311563,1.0415589707106352,0.5507970224782824
1647770388242412000,2.200412109375,1.102677164018154,0.9013578883379697,0.7952513832688332
1647770388252463000,2.210463134765625,1.5661732119232414,0.8642126912921667,0.8487433194816112
1647770388262514200,2.22051416015625,1.9947002377778291,0.9145014475494623,0.6833277163535356
1647770388272565200,2.230565185546875,2.4789316151976584,1.0864327161818743,0.3990836353577673
1647770388282616000,2.240615966796875,2.785427421620488,1.2107228204563258,-0.09037292936444281
1647770388292667100,2.250667236328125,3.1557752302289006,1.2712293116062878,-0.6421627622723579
1647770388302718200,2.26071826171875,3.628234921312332,1.490568520362675,-0.625033494425565
1647770388312768300,2.270768310546875,3.8270805003553625,1.4446265611380338,-0.31264760705083605
1647770388322819300,2.2808193359375,3.728680331879854,1.0910045541420579,0.2675190100356936
1647770388332870100,2.2908701171875,3.5484564511984584,0.5984609831899405,0.7588274862349033
1647770388342921000,2.3009208984375,3.3066549430042502,0.33000966074019666,0.8044888749524951
1647770388352972000,2.310971923828125,2.9265315903127194,0.5861614735871553,0.30958953465446826
1647770388363023000,2.321023193359375,2.903848049339652,1.091462819303572,-0.08268865847215055
1647770388373074200,2.33107421875,3.270616245895624,1.307055827268958,-0.17128376450911162
1647770388383125000,2.341125,3.333497357222438,1.135361290001869,-0.24284005746170878
1647770388393175000,2.351175048828125,3.234705559080839,0.951760918624699,-0.35184462205991146
1647770388403226000,2.36122607421875,2.957538138473034,0.9068921415895224,-0.5235337524995207
1647770388413277200,2.371277099609375,2.577906368690729,1.1202861782059073,-0.6015019583210349
1647770388423328300,2.381328369140625,2.242043013486266,1.3693141305223107,-0.6006536709286272
1647770388433379000,2.391379150390625,2.082234144324064,1.3760703267842531,-0.5055816239625215
1647770388443430100,2.40143017578125,2.182909271994233,1.2364648722171783,-0.4419166687816381
1647770388453481200,2.411481201171875,2.174533073315024,1.0496505072295665,-0.4370478937014937
1647770388463532300,2.4215322265625,1.8136410753160714,1.0043693500012159,-0.46238370274901386
1647770388473583000,2.4315830078125,0.920430837598443,1.1147300053834914,-0.6560732142031193
1647770388483633200,2.441633056640625,-0.6778717890352011,1.4442673724368214,-0.8963988046258687
1647770388493684000,2.45168408203125,-1.828147739574313,1.4465972766891122,-1.2335162515446543
1647770388503735000,2.461735107421875,-2.1449001515954733,1.1394769086271523,-1.4464476390853522
1647770388513786000,2.4717861328125,-2.3685656991183754,1.0362181942045687,-1.0737712413989007
1647770388523837200,2.481837158203125,-2.8174282415151595,0.8671557590067386,-0.8734428764522075
1647770388533888000,2.491887939453125,-3.479685112789273,0.5103565832793713,-0.9696887895032763
1647770388543939000,2.50193896484375,-4.038327880331874,0.2787178649201989,-0.7827120735608041
1647770388553990100,2.511990234375,-4.343514942243695,0.2696791106790304,-0.7041662139818072
1647770388564040200,2.522040283203125,-4.595995080840587,0.30352234356999397,-0.8499524030104278
1647770388574091300,2.53209130859375,-4.860076809903979,0.24180384628176688,-0.8703402342617511
1647770388584142300,2.542142333984375,-4.781015548148751,0.19759353315532208,-0.7456064778730273
1647770388594193200,2.552193115234375,-4.2864246892780065,0.27684154965430496,-0.9875026786133646
1647770388604244200,2.562244140625,-3.891957753935456,-0.11295096413642168,-1.0144808480404317
1647770388614295300,2.57229541015625,-3.344759924992919,-0.694205668720603,-1.111864386819303
1647770388624346000,2.58234619140625,-2.808613651418686,-1.1306781006217002,-1.666369616165757
1647770388634397000,2.59239697265625,-2.4141169054597613,-1.35449796192348,-2.2433536576934157
1647770388644448000,2.602447998046875,-2.021905055567622,-1.5542200315400958,-2.476462886996567
1647770388654498000,2.612498046875,-1.8984633848160504,-1.7683616716533899,-2.3106977397784587
1647770388664549000,2.622549072265625,-2.2452052769094704,-1.694801929923892,-1.9149840192452072
1647770388674600200,2.63260009765625,-3.0506600742846723,-1.4061618059262633,-1.4952220452569425
1647770388684651300,2.6426513671875,-3.7062539805382486,-0.992748178051412,-1.1864058330625296
1647770388694702000,2.6527021484375,-3.9830607511401173,-0.47762686458826065,-0.9971182098291814
1647770388704753200,2.662753173828125,-3.902241247540712,-0.03926233533024788,-0.8651715994521975
1647770388714804200,2.67280419921875,-3.3192449599862095,0.2778612480908632,-0.7002285822719335
1647770388724855300,2.682855224609375,-2.3065724765419957,0.4332107997566461,-0.5547111271820963
1647770388734905300,2.6929052734375,-1.2173662039935589,0.48942310084402557,-0.4901274497210979
1647770388744956000,2.702955810546875,-0.17573825969994067,0.5742945101827382,-0.47014001596421
1647770388755007000,2.713007080078125,0.8388526245862246,0.6517436605662107,-0.47927813892662524
1647770388765058000,2.72305810546875,1.6601450425624846,0.80286653444767,-0.643853345707804
1647770388775109000,2.733109130859375,2.3239760312855244,1.0789330080762505,-0.8867318354837596
1647770388785160200,2.74316015625,2.8308529557555913,1.3046011275932192,-1.1857092291004956
1647770388795211000,2.7532109375,3.09322437376976,1.5493831129029392,-1.435723562105745
1647770388805262000,2.763261962890625,3.307049495279789,1.7929297111988067,-1.6260811526581644
1647770388815312100,2.77331201171875,3.414536641052365,1.8903382382884621,-1.7685773602306842
1647770388825363200,2.78336328125,3.319154943615198,1.8537515519082546,-1.6940569567754864
1647770388835414300,2.793414306640625,2.9174855295479296,1.794428425323963,-1.2932991045951843
1647770388845465000,2.803465087890625,2.530247960937023,1.7443623719066381,-0.8274037404634058
1647770388855516200,2.81351611328125,2.2584897058963773,1.7851880110308527,-0.5548804193343967
1647770388865567200,2.823567138671875,1.716376048350334,1.9110785362392664,-0.37605113481655716
1647770388875618300,2.833618408203125,1.0231932929366827,2.0430147713527083,-0.19097681842930614
1647770388885669000,2.843669189453125,0.5458066668450832,2.070453105637431,0.07937946085892618
1647770388895720200,2.85372021484375,0.4539017056077718,1.8715140030920505,0.23707601404227316
1647770388905770000,2.86377001953125,0.6358966876149177,1.4592989373520016,0.04986855808384716
1647770388915821000,2.873821044921875,0.8221241926252841,1.165231527608633,-0.25130079261921345
1647770388925872600,2.88387255859375,0.9437725502192974,1.0199801761090754,-0.5170115111239254
1647770388935923500,2.89392333984375,0.8183388288676738,0.8484761929780245,-0.6460123503725975
1647770388945974300,2.903974365234375,0.45052959882616994,0.6353706179141998,-0.45675599906034764
1647770388956025300,2.914025390625,-0.04358078305125236,0.35282501139938827,0.10975224116034805
1647770388966076400,2.924076416015625,-0.8472662326663732,0.05068389305472373,0.741804820567742
1647770388976127500,2.93412744140625,-2.0499428170502183,0.036142742004990576,1.3065049153879285
1647770388986177500,2.944177490234375,-3.433337203112244,0.28005905039608475,1.6556436394900083
1647770388996228400,2.954228271484375,-4.536932066497206,0.62466509950459,1.8096248254120348
1647770389006279400,2.964279541015625,-4.870217095646262,0.8863444436013698,1.9149984861619769
1647770389016330500,2.97433056640625,-4.235691111862659,0.7455962487399578,1.951082483717054
1647770389026381600,2.984381591796875,-2.9374118807673453,0.23537819714844224,2.0931094663426277
1647770389036432400,2.994432373046875,-1.907589525079727,-0.21250877821445463,2.409832360008359
1647770389046483500,3.0044833984375,-1.5595499943912028,-0.5072469268262386,2.7417478543698786
1647770389056534500,3.014534423828125,-1.910715548145771,-0.5385039426162839,2.915859097389877
1647770389066584300,3.024584228515625,-2.198939200296998,-0.31151421910673377,2.9354665919184684
1647770389076635400,3.034635498046875,-2.4208172798812386,-0.02752572030723095,2.7184540725439788
1647770389086686500,3.0446865234375,-3.1748680532336233,0.3740571845203638,2.396558744676411
1647770389096737300,3.0547373046875,-3.7895126939833164,1.082192302133143,2.5139324936911462
1647770389106788400,3.064788330078125,-3.901383753928542,1.6391624602884054,2.844534859627485
1647770389116839400,3.07483935546875,-3.738842244932055,1.8763602740794418,3.1955373317748306
1647770389126890500,3.084890380859375,-3.514478778272867,1.7971166414946316,3.5351384122028944
1647770389136941300,3.09494140625,-2.9667314987540245,1.5162521199345589,3.7869869748979803
1647770389146991600,3.10499169921875,-1.8442495640695094,1.1731640741735696,3.732553958442807
1647770389157042400,3.11504248046875,-0.5069803848445416,0.8650275148063897,3.469394604921341
1647770389167093500,3.125093505859375,0.8437146776646375,0.6028273617058992,3.0213007088094948
1647770389177144600,3.13514453125,2.0092220996052026,0.29667759224176404,2.5286338037386535
1647770389187195600,3.145195556640625,2.6592256385058164,-0.07068389403223992,2.035703133165091
1647770389197246500,3.15524658203125,2.673483880960941,-0.2152601227492094,1.668299999706447
1647770389207297500,3.165297607421875,2.285766419878602,-0.10550269395709037,1.5604387599244713
1647770389217348600,3.1753486328125,1.722047664245963,0.06610241146087646,1.662915968580544
1647770389227399400,3.1853994140625,1.2949778514623642,0.14600655378103256,1.9811938366033135
1647770389237449500,3.195449462890625,0.8936427839159965,0.15649989074468612,2.4134831376008687
1647770389247500500,3.20550048828125,0.5050052853792906,0.11040332548022269,2.8373358880341053
1647770389257551400,3.21555126953125,0.3997586120098829,0.2576666013240814,3.0271868442386385
1647770389267602400,3.2256025390625,0.3462058855205774,0.6549608690470456,3.0069308226734397
1647770389277653500,3.235653564453125,0.32327333822250365,1.0971060858875512,2.848097520545125
1647770389287704600,3.24570458984375,0.314391528108716,1.5125485892415045,2.6917496054917573
1647770389297755400,3.25575537109375,0.2912999908566475,1.8603548956960438,2.6257687745839355
1647770389307806500,3.265806396484375,0.2160615022599697,2.1042519148647783,2.474350132626295
1647770389317856500,3.2758564453125,0.16740999181568622,2.330908460897207,2.315985032531619
1647770389327907600,3.285907470703125,0.597186140948534,2.5673908198952673,2.102698547942936
1647770389337958700,3.295958740234375,1.343461019602418,2.675908477759361,1.8587986061647532
1647770389348009500,3.306009521484375,2.024089413869381,2.652965409067273,1.6432190422028303
1647770389358060300,3.316060302734375,2.5812977646946904,2.560357852518558,1.5384391095623373
1647770389368111400,3.326111328125,3.003884879106283,2.406441548526287,1.57274089987576
1647770389378162400,3.336162353515625,3.302101517483592,2.2947902688115835,1.6820317340694366
1647770389388213500,3.346213623046875,3.445943586707115,2.2629671435713767,1.7144371892422436
1647770389398264300,3.356264404296875,3.4248329941391944,2.238494381093979,1.8094086984433233
1647770389408314400,3.366314453125,3.4819928052097557,2.1405776122212408,1.9220923899456857
1647770389418365400,3.376365478515625,3.3892128147035834,2.0637457169532776,1.9042426988698542
1647770389428416500,3.38641650390625,2.9702690252304076,2.0770658017754555,1.9160804361797867
1647770389438467600,3.396467529296875,2.653687293601036,2.0408149232208728,1.980458946457505
1647770389448518400,3.406518310546875,2.6324697335273024,1.913950876805186,1.9690534630849956
1647770389458569500,3.416569580078125,2.684689165586233,1.7550982854545116,2.0112698259152473
1647770389468620500,3.42662060546875,2.8185136986643076,1.5442653314977883,2.0999977645516394
1647770389478671600,3.436671630859375,2.852080452701449,1.4366875848323106,2.099833952292055
1647770389488721400,3.446721435546875,2.64105343747735,1.5276421134769915,2.062840584807098
1647770389498772500,3.4567724609375,2.0315069966495036,1.654855119460821,1.9975166103728115
1647770389508823300,3.4668232421875,1.0612398227363824,1.8143185361862182,1.976827896478772
1647770389518874400,3.476874267578125,0.156574709546566,2.071335149168968,2.099610518799722
1647770389528925400,3.486925537109375,-0.5339332736998796,2.283877245131135,2.1434199960403144
1647770389538976500,3.4969765625,-1.0404127232849598,2.3232822038024663,2.165484382201731
1647770389549027300,3.50702734375,-1.3111188389241695,2.2219763770133256,2.1261653482481835
1647770389559078400,3.517078369140625,-1.4911761308670044,1.9946061297535895,2.0786312975265084
1647770389569129500,3.52712939453125,-1.5922160001963377,1.687379086446762,1.9531842783018944
1647770389579179500,3.537179443359375,-1.4938532411217689,1.3823586132735013,1.887503599384427
1647770389589230600,3.547230712890625,-1.6251175683230161,1.2048539284229278,2.0591848387785254
1647770389599281700,3.55728173828125,-2.4582611676126715,1.1739140157580374,2.328510459844768
1647770389609332500,3.56733251953125,-3.6076515674889085,1.2783973035395144,2.5646193093553182
1647770389619383600,3.577383544921875,-4.680337497869134,1.5689152041077612,2.745363999040425
1647770389629434600,3.5874345703125,-5.263492775377631,1.8371853247717023,2.858134345912933
1647770389639485400,3.5974853515625,-5.548581052112579,2.0711697294741866,2.723257673433423
1647770389649536300,3.607536376953125,-5.679549611237645,2.3076216933339833,2.4299819985896347
1647770389659586300,3.61758642578125,-5.622416688174009,2.3540859228670596,2.0347575228780506
1647770389669637400,3.627637451171875,-5.362397970765829,2.2488737362891436,1.4311816808924078
1647770389679688400,3.6376884765625,-4.882333649897575,2.1490689617127177,0.7988385941058397
1647770389689739500,3.647739501953125,-4.145156269934773,2.0036480988651513,0.1991600518196821
1647770389699790600,3.65779052734375,-3.4797494101971385,1.8116548699349164,-0.360876800429821
1647770389709841400,3.66784130859375,-3.1534663687646387,1.5888383404567836,-0.7172840542301535
1647770389719892500,3.677892578125,-3.1283582309931517,1.381601949687302,-0.748854081492126
1647770389729943600,3.687943603515625,-3.250912597516179,1.2317945423185825,-0.6557894288256764
1647770389739993600,3.69799365234375,-3.2910277502834795,1.2241986803621052,-0.6075976448476315
1647770389750044700,3.708044677734375,-3.1530192095190284,1.2968486137703061,-0.7621431866541505
1647770389760095200,3.71809521484375,-2.7688948044925925,1.3753718231260776,-1.0105638207271694
1647770389770146300,3.728146240234375,-2.169521967154741,1.355189743579924,-1.1500544167429207
1647770389780197400,3.738197265625,-1.5394570544332264,1.1922948911011217,-1.1310834665521978
1647770389790248400,3.74824853515625,-1.0505880803406238,1.0609192124798894,-1.0769479717388748
1647770389800299500,3.758299560546875,-0.6806798321932553,0.9834200854748487,-0.9231851047426461
1647770389810350300,3.768350341796875,-0.4613040908187628,0.9422563004374503,-1.0030939232379197
1647770389820400400,3.778400390625,-0.15730419286489486,0.9886299290776253,-1.181067102383077
1647770389830451500,3.788451416015625,0.23149930988848208,1.017093807017803,-1.349544431169331
1647770389840502500,3.79850244140625,0.6076455756425857,0.9595894202932714,-1.626339219072461
1647770389850553600,3.8085537109375,0.9002788609296083,0.8896829403743147,-1.8996420732066035
1647770389860604400,3.8186044921875,1.1821575279682874,0.9071715430527925,-2.2170722383588553
1647770389870655500,3.828655517578125,1.2507850739926099,1.3251429803624748,-2.6846730912342665
1647770389880706600,3.83870654296875,1.4024649972349403,0.9088298316538334,-2.545309920990467
1647770389890757600,3.848757568359375,1.6417098066836595,0.2707309578195214,-2.4049615391016004
1647770389900808400,3.858808349609375,1.7766466849178075,-0.11472586485445499,-2.3591455443441864
1647770389910858500,3.8688583984375,1.5923130308300255,0.26257833876311776,-2.6331501170068976
1647770389920909300,3.878909423828125,1.6502239525288342,0.7057131511628627,-2.9536235953778025
1647770389930960100,3.888960205078125,1.6752262918382883,0.5405468466207385,-3.1825399030357597
1647770389941011200,3.89901123046875,1.6499328606277703,0.14632365690618754,-3.2610069982901213
1647770389951062300,3.909062255859375,1.7055051102459429,-0.1220823650971055,-3.429637471811473
1647770389961113000,3.919113037109375,1.6599398753792047,-0.23722236371040342,-3.7652766628712415
1647770389971164200,3.9291640625,1.4262562071889637,-0.28691315407454965,-4.031530767537653
1647770389981215200,3.93921533203125,1.2132640293717383,-0.3303244257777929,-4.224994361281395
1647770389991265300,3.949265380859375,0.9949556249678134,-0.3451695282101631,-4.386688898059726
1647770390001316400,3.95931640625,0.620410949191451,-0.3385205917149782,-4.693584809716046
1647770390011367400,3.969367431640625,0.3422141855359077,-0.3352259340837598,-4.671807862193882
1647770390021418200,3.979418212890625,0.08662322144210338,-0.34240123254060745,-4.45432509495914
1647770390031469000,3.989468994140625,-0.16902970197200773,-0.610813684284687,-4.098406501458585
1647770390041520000,3.99952001953125,-0.43174891051054,-1.042754610235989,-3.659810793793201
1647770390051571200,4.0095712890625,-0.8669763107866049,-1.3746224660634994,-3.5002757731363174
1647770390061622000,4.0196220703125,-1.8326842139601707,-1.5469301667928694,-3.424630457304418
1647770390071673000,4.029673095703125,-3.0728648918300867,-1.6018977285161613,-3.3107962805926796
1647770390081723100,4.03972314453125,-4.486633373367786,-1.4701149303987622,-2.979149374039471
1647770390091774200,4.049774169921875,-5.890645600044727,-1.2597756051778792,-2.5452301337525247
1647770390101825300,4.0598251953125,-6.551752716761827,-1.103607722866535,-1.9086957327559588
1647770390111876400,4.06987646484375,-6.570988163107633,-1.3269409696951509,-1.0142626752451063
1647770390121927200,4.07992724609375,-6.356330682426691,-2.0737422103106975,-0.594261777934432
1647770390131978200,4.089978271484375,-5.943117545560002,-2.2696476442486047,-0.3838850433126092
1647770390142029300,4.100029296875,-5.668935862764716,-1.9887723090335725,-0.10951236798986792
1647770390152080400,4.110080322265625,-5.520906278723478,-1.5577309622704982,0.2589578101783991
1647770390162130200,4.120130126953125,-5.592454096108675,-1.094911498452723,0.46251463565230366
1647770390172181200,4.13018115234375,-5.888498651143908,-0.6219377203673124,0.005938742399215698
1647770390182232000,4.140232177734375,-4.46838576901555,0.3386015479966998,-1.618278369952738
1647770390192283100,4.150283203125,-2.3748726903080937,1.7868930613830685,-2.213925757026672
1647770390202334200,4.160334228515625,-2.468124389979243,2.0924048252046106,-1.6928627785548567
1647770390212385300,4.17038525390625,-3.1866818251460787,1.3995537859633564,-0.924393896010518
1647770390222436000,4.18043603515625,-3.462360468500852,0.9385825803607701,0.054285132417082785
1647770390232487200,4.190487060546875,-2.939617281857133,0.7434440391421318,0.5799765013419091
1647770390242537200,4.200537109375,-2.2314076377034184,0.7716913517221808,0.8841399192944168
1647770390252588300,4.21058837890625,-1.739011658528447,0.9568968202084303,1.4608824071511626
1647770390262639400,4.220639404296875,-1.2715560593426227,0.9930264104709029,1.9487582785531878
1647770390272690200,4.230690185546875,-0.8319885840356349,1.100853455722332,1.6643717203468082
1647770390282741200,4.2407412109375,-0.22729601297974586,1.4785957584962248,1.0260463442802428
1647770390292792300,4.250792236328125,0.6128226860195398,1.9492709042504428,0.5262213841482997
1647770390302843400,4.260843505859375,1.5016063394665717,2.259241985568404,0.11689911724030971
1647770390312894200,4.270894287109375,1.994918848964572,2.3684108008176086,-0.2626983118809759
1647770390322945000,4.280945068359375,1.8698112908273934,2.3486440240740776,-0.6359292747102677
1647770390332995000,4.2909951171875,1.4845786322981118,2.4549112726628777,-0.6452307715408504
1647770390343046100,4.301046142578125,-0.2531049924969673,2.2811685706943274,0.3666737962707877
1647770390353097200,4.31109716796875,-0.5276777204364538,1.3818404346182942,2.3187938063420352
1647770390363148300,4.321148193359375,1.7279823149919509,1.0310288088679314,2.759518781121075
1647770390373199000,4.33119921875,3.110633773732185,1.0290355892241,1.7801758819572626
1647770390383250200,4.341250244140625,3.905189575952291,1.0899667355269194,0.8790297366738319
1647770390393301200,4.35130126953125,4.4087727195739745,2.6248662727862593,-0.4593769221484661
1647770390403352300,4.361352294921875,5.175425784868001,2.797204953175783,0.08703370193913579
1647770390413402400,4.37140234375,5.044863468456268,2.5200936466693875,-0.12247443315461277
1647770390423453400,4.381453369140625,5.69968112964034,2.6660926016658544,-0.5443167205482721
1647770390433504000,4.39150390625,4.276331749808788,2.1724644503474235,-0.007174421674013137
1647770390443555000,4.40155517578125,3.591045885124802,1.8040397187560795,0.9225123200476169
1647770390453606100,4.411606201171875,4.08615229230225,2.162487246212363,0.5645341636687516
1647770390463657200,4.4216572265625,5.013113992974162,1.4121335738122462,0.33360826975405217
1647770390473708000,4.4317080078125,4.9647500672996046,0.6682821229130029,1.0847466627910733
1647770390483759000,4.441759033203125,4.914840081226825,0.7428209388077258,1.497669000017643
1647770390493810200,4.45181005859375,4.498140855810046,1.2520756983250378,2.045409557534754
1647770390503860200,4.461860107421875,3.6501930706202983,1.4685715003490447,2.3780434292986987
1647770390513911300,4.471911376953125,2.582181561791897,1.364125037446618,0.6966577380478381
1647770390523962400,4.48196240234375,2.419296938446164,1.3726228166788816,0.1349199270993471
1647770390534013200,4.49201318359375,3.5998254039078947,0.8877437890052795,0.786924284428358
1647770390544064300,4.502064208984375,3.7879584502786394,0.19918664756566284,1.311180652114004
1647770390554115300,4.512115234375,3.2923891017645595,-0.25104046118259427,1.3449772693842648
1647770390564166400,4.52216650390625,2.3355571634858845,-0.4577241865053773,2.0453524205200373
1647770390574217200,4.53221728515625,1.0825456456154585,-0.45948213608860966,1.8938411318428814
1647770390584267300,4.542267333984375,-0.16388006412386893,-0.36919513144195076,1.4807631656631826
1647770390594318000,4.552318115234375,-1.2479162405580282,-0.2535673493117094,0.5963087735921144
1647770390604369200,4.562369140625,-1.5322826327592134,-0.14538462249040604,0.028366262784600256
1647770390614420200,4.572420166015625,-0.47953825116753573,-0.2720665903374553,0.7038884199537336
1647770390624471300,4.58247119140625,0.5101929171502589,-0.9064891137465834,0.9306433117941021
1647770390634522000,4.592522216796875,0.554749851757288,-1.4849521417856215,1.292702892267704
1647770390644573200,4.6025732421875,-0.3394657636106014,-1.4468541740596295,1.8790594500355422
1647770390654624300,4.612624267578125,-1.6195657794147729,-1.0209861382812262,2.1477705924652515
1647770390664674300,4.62267431640625,-2.9406811116963625,-0.3127323627248406,2.2450302126035093
1647770390674725400,4.632725341796875,-3.97802041888535,0.3335100700765848,2.1973586531072855
1647770390684776200,4.642776123046875,-4.414298789519071,0.5247095182806253,2.117256942388415
1647770390694827300,4.6528271484375,-4.404633135551214,0.2482166359335184,2.1936191743180156
1647770390704878300,4.66287841796875,-3.95196652469635,-0.33330256480574605,2.297260166056454
1647770390714929200,4.67292919921875,-3.5697283718079325,-0.7661983072638511,2.547572020703554
1647770390724980200,4.682980224609375,-3.852800048023462,-0.7650801168888807,2.9110557887613773
1647770390735031000,4.693031005859375,-4.365789317893982,-0.17412410250157118,3.0147347744226454
1647770390745082000,4.70308203125,-4.819707974636555,0.358431745365262,3.393328141067922
1647770390755132200,4.713132080078125,-4.621948437264561,1.0859484397962689,3.6281729619920253
1647770390765183200,4.723183349609375,-3.1611756279677152,0.3638432490199804,3.573706920050084
1647770390775234300,4.733234375,-1.2876350874841211,-0.8102923005342483,3.6539778498560187
1647770390785285000,4.74328515625,-1.2578127806723116,0.2233390920475125,3.4376024593412873
1647770390795336200,4.753336181640625,-1.318529407441616,1.2528770778357983,2.751037076240778
1647770390805387300,4.76338720703125,-1.151478896588087,1.1284838054478168,2.4971374262347816
1647770390815438300,4.773438232421875,-0.8156488591313361,0.6030395431518555,2.0305951425015927
1647770390825489400,4.783489501953125,-0.07477846986949443,0.04085106582641601,1.0613618416808546
1647770390835539200,4.793539306640625,0.5586772543340921,-0.17326456306278704,0.14623524797037243
1647770390845590000,4.803590087890625,0.889902428343892,-0.16741612929552793,-0.2648347393877804
1647770390855641000,4.81364111328125,1.0667693998128176,0.05550824447125196,-0.2926071279324591
1647770390865692200,4.823692138671875,1.2251549581736325,0.3907292101189494,-0.12547145954612643
1647770390875743200,4.8337431640625,1.4814268902689218,0.520321804715693,0.18872458252310753
1647770390885794000,4.8437939453125,2.0312083059638737,0.4978267720520496,0.44766587995812296
1647770390895845000,4.85384521484375,2.710333309930563,0.4643456504717469,0.36811840558853
1647770390905896200,4.863896240234375,3.2607851722329855,0.1760854657024145,0.21931213808637112
1647770390915946200,4.8739462890625,3.516442187300324,-0.11657938376665114,0.11006050339192151
1647770390925997300,4.883997314453125,3.608707798543572,-0.03055120560824871,-0.13926628574058414
1647770390936048400,4.89404833984375,4.147603078565001,0.2439008185610175,-1.1975934359006584
1647770390946099200,4.90409912109375,3.68098100759387,0.11991495793014764,-1.203603928361833
1647770390956150300,4.914150390625,1.7970014906823635,-0.6836074100777506,-0.43712431993857026
1647770390966201300,4.924201416015625,0.2919277673661709,-0.4588830011516809,-0.48488764937147494
1647770390976252400,4.93425244140625,0.07629764226078986,0.028376784178614615,-0.6264817935377359
1647770390986303200,4.94430322265625,0.32092998996675015,0.19737959814369677,-0.2833113301903009
1647770390996354300,4.954354248046875,0.7243576458781957,0.36117490659356116,0.013279022159427403
1647770391006404000,4.964404052734375,1.049235496687889,0.6328811391860246,-0.14806816248595714
1647770391016455200,4.974455078125,0.9850228444963693,0.6135442782923579,-0.41065614586025473
1647770391026506200,4.98450634765625,0.9526409163296222,0.36154344764500856,-0.7412339618772268
1647770391036557300,4.994557373046875,1.2857400675177573,0.22001257797330617,-1.265733782929927
1647770391046608100,5.004608154296875,1.0229045391231775,-0.07767389905005694,-1.4693898309946059
1647770391056659200,5.0146591796875,0.6746148330658673,-0.32707623763680455,-1.3904717771023511
1647770391066710300,5.024710205078125,0.285260126170516,-0.3692524145871401,-1.1971264029107986
1647770391076761300,5.03476123046875,-0.41006665553450583,-0.13504267669618128,-0.6710441349722445
1647770391086811400,5.044811279296875,-1.3739473432809113,0.19887129800617695,-0.8530014153175055
1647770391096862200,5.0548623046875,-2.513582072818279,0.5769762966126203,-1.0264087478518484
1647770391106913300,5.064913330078125,-3.5592549085885286,0.8238751279458403,-1.1248791320193559
1647770391116964400,5.07496435546875,-4.602035530048608,0.9577455459922551,-0.9759520876817405
1647770391127015400,5.085015380859375,-5.034613292598724,1.0634195048630237,-1.0632756394129246
1647770391137066200,5.095066162109375,-5.018475812268257,0.8986424918994307,-1.878027330508828
1647770391147117300,5.105117431640625,-4.696826860377192,0.5754927800565958,-2.459794953051209
1647770391157168000,5.115168212890625,-4.539791547581554,0.16034692156165836,-2.7300188381314276
1647770391167219200,5.12521923828125,-5.029661807671189,-0.3540691662415862,-3.3747423908025023
1647770391177269200,5.135269287109375,-4.719563008320331,-0.7312456518262624,-4.196497165593505
1647770391187320300,5.1453203125,-2.8738334348261354,-0.560954551616311,-3.4955557588770985
1647770391197371100,5.15537109375,-1.0235182871073485,-0.09403934291750192,-2.1157599818289277
1647770391207422200,5.165422119140625,-0.5676642783880234,0.0667163055755198,-1.8788097130581736
1647770391217473300,5.175473388671875,-0.4889309334129095,0.08481003454029559,-1.7572294522643088
1647770391227524400,5.1855244140625,-0.3129021663337946,0.09754618199467659,-1.578570921203494
1647770391237575200,5.1955751953125,-0.20804069288969038,-0.03037204964905977,-1.2528009438596666
1647770391247626200,5.205626220703125,-0.23574761498272417,-0.23899331890568135,-0.8915463961586355
1647770391257676300,5.21567626953125,-0.4605290147930383,-0.2925929532766342,-0.7280523356776684
1647770391267727400,5.225727294921875,-0.6478349626898765,-0.04895078565180301,-0.3271178848214447
1647770391277778200,5.235778076171875,-0.5974614507585764,0.19474837285727262,-0.15094685972742736
1647770391287829200,5.245829345703125,-0.6064373688966036,0.5005085584819317,0.06121186294034123
1647770391297880000,5.255880126953125,-0.6197802500724792,0.7467308057278395,0.18808928029425442
1647770391307931100,5.26593115234375,-0.653082215693593,0.8751058412283659,0.29854492048360404
1647770391317982200,5.275982177734375,-0.48342532173395153,0.9497425645396113,0.42013533734530206
1647770391328033300,5.286033203125,-0.21255203283429144,1.0173241086423397,0.36232583019435405
1647770391338084000,5.296083984375,0.09537468317449092,1.0828656713500617,0.03307995690088719
1647770391348134400,5.306134521484375,0.6290431684583425,1.1878878883138297,-0.1463803555294871
1647770391358185200,5.316185302734375,1.376518070551753,1.2449001076072455,-0.09531155481040478
1647770391368236300,5.326236328125,2.1042051531136035,1.2986802131116388,-0.21150047795474528
1647770391378287400,5.336287353515625,2.666699335387349,1.3582824488982557,-0.06476816718243063
1647770391388338400,5.34633837890625,3.4555507884860037,1.588035499641299,0.23140330216810107
1647770391398389200,5.35638916015625,4.080294798445701,1.4709481663525104,0.4906424135059118
1647770391408440300,5.3664404296875,4.598668099442124,0.8455699501425027,0.7743753301091492
1647770391418491400,5.376491455078125,4.840263271409273,0.3373202760145068,0.8093135916952043
1647770391428541200,5.386541259765625,4.586264544942975,0.14289865089356898,0.9932575888782739
1647770391438592300,5.39659228515625,3.9296857193052768,0.2769435487240553,0.9240911136716604
1647770391448643300,5.406643310546875,3.321368528011441,0.6121873107254505,0.85699822986871
1647770391458694100,5.416694091796875,3.1137013446092605,0.7887772188186645,0.9823733529008924
1647770391468745200,5.4267451171875,3.077320702195167,0.7900082219183444,1.1297355590745806
1647770391478796300,5.43679638671875,3.068873191845417,0.7178992635190486,1.187371170963347
1647770391488847400,5.446847412109375,3.1397961553305387,0.5438517333850265,0.9961416198819875
1647770391498898200,5.456898193359375,3.2329981706410647,0.36918490230888124,0.7724665738783776
1647770391508949200,5.46694921875,3.3799925664156674,0.20279899284392594,0.7539471668474376
1647770391518999300,5.476999267578125,3.148855660098791,0.013684534220397471,1.551748380729556
1647770391529050400,5.48705029296875,2.9510949536830187,-0.11720306862294673,2.1358079136013983
1647770391539101400,5.497101318359375,2.81013457737565,-0.01722469104528427,1.9332824770018457
1647770391549152300,5.50715234375,2.492595398890972,0.1536509310543537,1.5924866338312624
1647770391559203000,5.517203125,2.1251620164245364,0.18687720109075306,1.5355311131611467
1647770391569254100,5.527254150390625,1.858649845343828,0.10762070902436971,1.7042606631428003
1647770391579305200,5.53730517578125,1.5713286949902772,-0.08339198443591594,2.01703218883425
1647770391589356300,5.547356201171875,1.3157868307352065,-0.3591147591933608,1.979561266965419
1647770391599406300,5.55740625,1.0260825846374035,-0.6676172292634844,2.1683378719367083
1647770391609457200,5.56745703125,0.4182324263334274,-0.9934934434607624,2.464014032050967
1647770391619508200,5.57750830078125,-0.5325730912625789,-1.151755083180964,2.8920886379629374
1647770391629559300,5.587559326171875,-1.6351356889903546,-1.0381289962619542,3.4678172726020215
1647770391639610400,5.5976103515625,-2.5148341187059877,-0.8389961247101425,3.633669221320748
1647770391649661200,5.6076611328125,-3.2581402106821535,-0.8984709347248077,3.530859419709444
1647770391659712300,5.617712158203125,-4.25773343232274,-0.7755199700996279,3.9274259576797483
1647770391669763300,5.627763427734375,-5.144032283216714,-0.32586306245476004,4.068245171950757
1647770391679813000,5.637813232421875,-5.887569261339307,0.15600889235734938,3.6246935954436657
1647770391689864200,5.6478642578125,-6.171094526541233,0.4592646939456463,3.53082960909307
1647770391699915300,5.657915283203125,-5.950023671686649,0.5458896689534187,3.2810905858978625
1647770391709966000,5.667966064453125,-5.479792762568593,0.10299509505033493,2.2272268448874355
1647770391720017200,5.67801708984375,-4.889724929192662,-0.39158348886072636,1.0162262304030358
1647770391730068200,5.688068115234375,-4.222293870151042,-1.0330553462594747,0.24323643636815248
1647770391740119300,5.698119384765625,-3.7702053514450786,-1.6072838054686784,-0.010609949080646037
1647770391750170000,5.708170166015625,-3.6933635193049907,-1.640455422708392,0.11945815407335758
1647770391760220400,5.718220458984375,-3.5569758577406403,-1.2274839856430888,0.3322671573434025
1647770391770271200,5.728271240234375,-2.9859985092818735,-0.8237751747027039,0.3830221428729593
1647770391780322300,5.738322265625,-2.325255549702048,-0.49111587623655795,0.40877807702869173
1647770391790373400,5.748373291015625,-1.7625205444097518,-0.23084639893770217,0.46395745487175877
1647770391800424400,5.758424560546875,-1.4546604638963936,-0.04042816423922777,0.4689646155092865
1647770391810475300,5.768475341796875,-1.386887488874793,0.16268880851268766,0.24588439359366893
1647770391820526300,5.7785263671875,-1.2261883928745985,0.3204612034112215,-0.101951942672953
1647770391830577400,5.788577392578125,-0.8649789994895458,0.35102877563238144,-0.5658133898243308
1647770391840628200,5.798628173828125,-0.3930833720296621,0.30477731206715103,-0.546238774652034
1647770391850678300,5.80867822265625,0.31551264109313487,0.3328694340854883,-0.6821343418505043
1647770391860729300,5.818729248046875,0.9034183279991149,0.47756987370401616,-0.8369055821716785
1647770391870780200,5.8287802734375,1.337343413504958,0.6206365746408701,-0.9734823365673422
1647770391880831200,5.838831298828125,1.6310329298466444,0.6962842285603285,-0.9243899504877626
1647770391890882300,5.84888232421875,1.7828332645982503,0.8281491520032286,-0.7767179477125405
1647770391900933400,5.858933349609375,1.8602555269747971,0.933092166250944,-0.6557046731516718
1647770391910984200,5.868984130859375,1.849028615039587,0.8964306610688567,-0.710636286778748
1647770391921035300,5.87903515625,1.6945879949122666,0.752598820978403,-0.8496452367573976
1647770391931085000,5.8890849609375,1.5043775577455758,0.6594210633262991,-1.0041722199939191
1647770391941136100,5.89913623046875,1.3829612553417683,0.8958502308323979,-0.8577882112026214
1647770391951187000,5.90918701171875,1.2397878791600465,1.0343144064098595,-0.9344923884376883
1647770391961238000,5.919238037109375,1.1888783606559037,0.9207660609021783,-1.4422725453577936
1647770391971288800,5.929288818359375,1.4480758248090744,0.6179121181130409,-2.013056124810129
1647770391981340000,5.93933984375,1.9064228193879127,0.21276129167079924,-2.546952719761431
1647770391991391000,5.949390869140625,2.4595710811674594,0.0288391409933567,-2.857987338657677
1647770392001442000,5.959442138671875,2.985382423210144,0.19336276371777056,-2.7436893438264724
1647770392011492900,5.969492919921875,3.428503791606426,0.7907283528864383,-2.0667457755520937
1647770392021543000,5.97954296875,3.6371155623823404,1.2776350869953632,-1.7851335043646395
1647770392031594000,5.989593994140625,3.4969390299290417,1.6480039383918046,-1.4885926902450621
1647770392041645000,5.99964501953125,3.265757699948549,2.036761848437786,-0.9886077172458171
1647770392051696000,6.009696044921875,2.8250989222735163,2.3241917198628186,-0.5990368833817541
1647770392061747200,6.019747314453125,2.223821712619066,2.252339366573095,-0.20249635663554072
1647770392071798000,6.029798095703125,1.6886287942469118,1.9758534984886644,0.17283523173481224
1647770392081849000,6.03984912109375,1.2377812155127526,1.6478326734781263,0.6156639007948339
1647770392091900200,6.049900146484375,0.942432241526246,1.5252286225944756,0.8956772123530506
1647770392101950000,6.059949951171875,0.7467652925193309,1.8594272594571113,1.0502123788960278
1647770392112001000,6.0700009765625,0.34695816519260403,2.3017869958311317,1.492127001851052
1647770392122051800,6.0800517578125,-0.21988602898418902,2.4450898436114192,2.3069766734287143
1647770392132103000,6.09010302734375,-0.6666331866621971,2.2938459736987946,3.0095965347513554
1647770392142154000,6.100154052734375,-1.2516682865679263,2.244827383507788,3.2717727224543687
1647770392152205000,6.110205078125,-1.967275639757514,2.3684783130958675,3.463717728328705
1647770392162256100,6.120256103515625,-2.5929256586462257,2.3051371830418703,3.712206751462817
1647770392172307000,6.130306884765625,-3.029278263559937,1.9636744003951547,3.7326843068242073
1647770392182358000,6.14035791015625,-3.144261902567744,1.5759259596526622,3.2380905253440138
1647770392192408000,6.150407958984375,-2.870107692301273,0.8768596991583705,2.243163541948795
1647770392202459100,6.160459228515625,-2.132095030558109,-0.3508285768851638,1.0893690618947147
1647770392212510200,6.17051025390625,-1.4585481189846992,-1.7238403928816317,0.5377168838918209
1647770392222561000,6.18056103515625,-1.1021686299741267,-2.837992598377168,0.415320046018064
1647770392232611800,6.19061181640625,-0.9637631988465786,-3.4049463904082775,0.30844708662107584
1647770392242663000,6.200662841796875,-0.9698270289301871,-3.366925287310779,0.49524376982152457
1647770392252714000,6.2107138671875,-1.1772142263472078,-2.814939347308874,1.2030221829511225
1647770392262765000,6.22076513671875,-2.1798054607599973,-2.03102885774374,2.062575942521542
1647770392272815000,6.230815185546875,-4.070855938971042,-1.2880223332360385,2.6642496041476726
1647770392282866000,6.240865966796875,-2.889334370818734,-0.9144996939837932,3.5079777258157727
1647770392292917000,6.2509169921875,-1.7654057444572449,-0.2011041716247797,4.396785344660282
1647770392302968000,6.260968017578125,-1.907854313495755,0.6630035979881882,4.581799966749549
1647770392313019100,6.27101904296875,-2.1133920836538076,0.9145666217401623,4.289546912951767
1647770392323070000,6.281070068359375,-1.6928841136038302,0.8482590430960059,3.7810242671012877
1647770392333121000,6.29112109375,-1.1521879216402768,0.45966713726669545,3.109440764555335
1647770392343172000,6.301172119140625,0.07182137362957,-0.04425765939950943,2.5395225697606802
1647770392353223200,6.31122314453125,1.5453443589061497,-0.34833120711147786,2.087654123546183
1647770392363273000,6.32127294921875,2.561183197426796,-0.2854804909229278,2.050231132472306
1647770392373324000,6.331323974609375,2.9852058975994584,0.20036387465149164,2.2905831725105643
1647770392383374800,6.341374755859375,2.9285674800544976,0.9344409505113959,2.623511643306911
1647770392393426000,6.351426025390625,2.6271628592908383,1.4647268076196311,2.9299866992026566
1647770392403477000,6.36147705078125,2.262578436514735,1.5062512426629662,3.0351971322149036
1647770392413528000,6.371528076171875,1.9636977812707423,1.5726500067219138,3.104757575175166
1647770392423579000,6.381578857421875,1.8196271639883517,1.7802932247266172,3.2605250599920748
1647770392433630000,6.3916298828125,2.0624363879203793,1.9063596910238265,3.078721801164746
1647770392443680000,6.401679931640625,2.903601381102204,1.6338023945599793,2.346527470311522
1647770392453731000,6.41173095703125,3.820858264839649,0.999229356764257,1.7302233719170093
1647770392463782100,6.4217822265625,3.668259473186731,0.7836690820246934,1.661074724628031
1647770392473833000,6.4318330078125,2.895308184531331,1.1323787670597434,2.269210714136064
1647770392483884000,6.441884033203125,2.1320587902009485,1.6733423777878282,2.866823556064069
1647770392493935000,6.45193505859375,0.9383341585576533,2.0853572447806594,2.971142593194544
1647770392503986200,6.461986083984375,-0.30215047069489953,2.314350709328055,3.331683878059685
1647770392514037000,6.472037109375,-1.0886147363960743,2.2346143247902392,3.8424747611030936
1647770392524087800,6.482087890625,-1.6206278556883333,1.831374008144438,3.5969261753350494
1647770392534137900,6.492137939453125,-2.371677109137177,1.1714911725252866,3.3022195909053087
1647770392544189000,6.50218896484375,-2.8939883341044186,0.331254984626174,3.372058850806951
1647770392554240000,6.512239990234375,-2.0511118608295917,0.27543518998771904,3.329652372232079
1647770392564291000,6.522291015625,-1.4057722220867872,0.9732672325119376,0.8526268829166889
1647770392574342000,6.532341796875,-0.8836053740262985,1.1415788493424652,-1.1826315752208232
1647770392584393000,6.54239306640625,-0.1172352173268795,1.199614566464722,-1.2400748794078826
1647770392594444000,6.552444091796875,-0.19917466486692428,1.277176529572904,-2.769948989720642
1647770392604495000,6.5624951171875,-1.6197382133722305,1.1833438151434064,-2.2361858118906617
1647770392614545200,6.572545166015625,-1.829983138307929,0.8103072058424353,-3.9519361295580864
1647770392624596200,6.58259619140625,-1.5101350983589887,0.69450962010324,-3.462814642009139
1647770392634646800,6.592646728515625,-1.9900778386741875,2.7299533716797826,-1.7315674800023435
1647770392644697900,6.60269775390625,-3.229624894815683,3.701520230014622,-0.5511961778637021
1647770392654749000,6.6127490234375,-4.690376076802611,2.615821381065249,-2.2773016661331056
1647770392664800000,6.622800048828125,-5.533400434115529,1.5033824092283845,-4.726648874928057
1647770392674850800,6.632850830078125,-9.298608707925677,0.36149200971871615,-7.6316054700314995
1647770392684902000,6.64290185546875,-2.9010873524546623,0.8635548119053245,-4.273335490602254
1647770392694953000,6.652952880859375,-1.2657716307222842,2.657665549582243,-1.785398146650195
1647770392705003000,6.6630029296875,-2.186471348389983,3.293604030512273,-1.7821433826379478
1647770392715054000,6.67305419921875,-1.3438584944874048,3.7180975630670785,-1.2967518753975629
1647770392725105200,6.683105224609375,-0.9081903647065163,3.8915857057526706,-1.673546083666384
1647770392735156000,6.693156005859375,-0.9477209955841303,4.196914221961796,-1.5991826243385672
1647770392745207000,6.70320703125,-0.2902016742259264,4.151867165750265,-0.9447212292462587
1647770392755258000,6.713258056640625,-1.3284481593877076,3.9933980207592246,-2.17432644482702
1647770392765309200,6.72330908203125,-2.202171021825075,4.056184731800854,-1.9548378907278179
1647770392775360000,6.733360107421875,-2.4312165088206528,3.6083223063573238,-1.3415117852307856
1647770392785410000,6.74341015625,-3.011297201189399,2.5703140138655898,-0.9574500701770186
1647770392795460900,6.7534609375,-2.735603944787383,2.1860765038534997,-1.1076980609200895
1647770392805512000,6.763511962890625,0.18838789791464805,2.0789234123408793,-1.7474821113623678
1647770392815563000,6.77356298828125,2.1321862159729004,2.095615603944659,-3.1550086297705766
1647770392825614000,6.783614013671875,2.751985755267739,1.7049983297675848,-4.7216035742372275
1647770392835665000,6.793664794921875,2.5702982317745686,0.22548808677494525,-5.498098234587907
1647770392845716000,6.803716064453125,2.270322182509303,-0.09120645757913588,-5.642368173834681
1647770392855767000,6.81376708984375,2.036830822020769,0.16543343104571104,-5.2484208784520625
1647770392865818000,6.823818115234375,1.109374615830183,0.4060103658810258,-4.579508640941977
1647770392875868200,6.8338681640625,0.2628209153473377,0.6177206871941685,-3.7402868907824156
1647770392885919000,6.8439189453125,0.242267956662178,0.6967223277166485,-2.560054193396866
1647770392895970000,6.853969970703125,0.19691607228517533,0.7416165314540266,-1.3768147154107688
1647770392906021000,6.864021240234375,-0.07937398096621036,0.48248628731817006,-1.305479956254363
1647770392916072000,6.874072021484375,-0.38058804759383197,-0.0587023643374443,-1.9783121436871587
1647770392926122500,6.88412255859375,-0.46797582366764545,-0.41200697594732044,-2.746085006791353
1647770392936173300,6.89417333984375,-1.0859159988313913,-0.3221341050595045,-3.0198198226019737
1647770392946224400,6.904224365234375,-2.025990279054642,0.5949398233264684,-2.962958994477987
1647770392956274400,6.9142744140625,-0.6746200937628746,1.3486124110162256,-3.5430540076330304
1647770392966325500,6.924325439453125,-0.29726971291601656,1.800641016228497,-5.2817070619821544
1647770392976376600,6.93437646484375,-1.2857371449083088,1.6017074666410684,-5.778680432075261
1647770392986427600,6.944427734375,-0.713879506483674,1.765714956536889,-4.784587561416625
1647770392996478500,6.954478515625,-0.05464227529168129,1.1038421161442995,-3.8215918398112056
1647770393006529500,6.964529541015625,0.24150749368369578,0.5771133669957518,-2.979556493535638
1647770393016580600,6.97458056640625,0.47881169045865535,0.2930450809583068,-2.462882689933479
1647770393026631400,6.98463134765625,0.3328367008596658,0.28511458021998404,-2.1935092842027544
1647770393036682200,6.99468212890625,0.12634908263087272,0.5773153193086386,-2.500215226244926
1647770393046732500,7.004732666015625,-2.2662159162342546,1.4383078795105217,-3.3120644008323548
1647770393056783400,7.014783447265625,-5.500139969548583,2.6150971584439278,-4.139607988157868
1647770393066834400,7.02483447265625,-4.981792972037196,2.7769652982234954,-3.0733082516834136
1647770393076885500,7.034885498046875,-4.1358319767504925,2.9233903696775436,-1.9468363705798983
1647770393086936600,7.0449365234375,-2.8598756366223097,2.8972371067672964,-2.249740436121076
1647770393096987400,7.0549873046875,-1.3912059365957974,2.313929853567481,-2.001238261244446
1647770393107038500,7.06503857421875,-1.131232227373123,1.821670652514696,-0.7751264407373964
1647770393117089500,7.075089599609375,-0.3079424980998039,0.6751847419083118,0.10356420017518103
1647770393127139600,7.0851396484375,0.274196880364418,-1.6943085934489965,4.151243480893969
1647770393137190700,7.095190673828125,-3.0096213769316673,-3.8908471623450516,9.086023357343674
1647770393147241500,7.105241455078125,-6.765220695397257,-0.9027104719907045,3.1350387316703796
1647770393157292300,7.115292236328125,-5.67968872744739,2.3224556898504494,-1.4343237783104181
1647770393167343400,7.12534326171875,-6.88289664222896,2.5156492344811556,-0.2677732770577073
1647770393177394400,7.13539453125,-5.968927694121003,2.6263699553474784,-1.0937150552097707
1647770393187445500,7.145445556640625,-3.801872409340739,3.078209175467491,-0.9511364300508052
1647770393197496300,7.155496337890625,-2.225463050085306,3.3317017059773204,-0.2912396389715373
1647770393207547400,7.16554736328125,-0.863559195819497,3.446528693118691,-0.28507066801302133
1647770393217597400,7.175597412109375,-0.44934711104333397,3.0071339440301057,0.5378994008518755
1647770393227648500,7.1856484375,-0.6550912174284458,2.250864033323526,2.1033799543358382
1647770393237699600,7.195699462890625,-1.300382925376296,0.4400517516925931,2.5293551037505266
1647770393247750400,7.20575048828125,-1.3145055587530134,-1.037159858968854,1.726815755430609
1647770393257801500,7.215801513671875,-1.8286293856114149,-0.9600202129259705,0.4974905258350074
1647770393267852500,7.2258525390625,-2.1999901706546545,1.0454454567551612,-0.7953489984244108
1647770393277903600,7.235903564453125,-2.1125252376914023,2.714813085693121,-0.1253328913256526
1647770393287954700,7.24595458984375,-1.7579729641079902,2.9411203798964616,0.05772489760741591
1647770393298004500,7.25600439453125,-1.0557038159191607,2.947028434896469,-0.332543563131988
1647770393308055300,7.26605517578125,-0.2365565932780504,3.5377287209570407,-0.8551545016981661
1647770393318106400,7.2761064453125,0.4081593606084585,3.4341298147946593,-0.5231701798841357
1647770393328157400,7.286157470703125,1.113565053257346,3.2363828446432947,0.25886165632754565
1647770393338208500,7.29620849609375,1.644537723585963,3.2388919048547744,0.6439310871191323
1647770393348259300,7.30625927734375,1.6457681421637533,3.162572343023121,0.6911063875310123
1647770393358310400,7.316310302734375,1.2616098348677158,2.943850389382243,0.4270024466358125
1647770393368361500,7.326361572265625,1.0536170727729797,2.6453409055382013,0.2675634336993098
1647770393378412500,7.33641259765625,0.6914590003609656,2.3394568012729287,0.05110124168395996
1647770393388462600,7.346462646484375,0.30550036564469335,2.315643964008987,-0.19180398996844886
1647770393398513700,7.356513671875,0.8936667493134737,2.1481524313896894,-0.6004566870518029
1647770393408564500,7.366564453125,1.4431711016327142,1.739943970942497,-0.6355659943558275
1647770393418615600,7.376615478515625,1.4728911171138286,1.403008602592349,0.2758925783663988
1647770393428666400,7.386666259765625,1.3748872544795274,1.7175936074465512,0.3735185475990176
1647770393438717400,7.396717529296875,1.631218223285675,1.9808315791621802,-0.5443057972954586
1647770393448768300,7.406768310546875,1.8214140474051237,1.6717849192127585,-1.0207111207321287
1647770393458819300,7.4168193359375,1.6567074693292378,1.2165987267524003,-1.4378180501669644
1647770393468869400,7.426869384765625,1.384849261045456,1.0455237826883792,-1.8472135284416376
1647770393478920400,7.43692041015625,0.9054723379194736,1.1909282789230347,-1.9315780111715197
1647770393488971500,7.446971435546875,0.4872948566436767,0.9246347190290689,-1.5704507431119679
1647770393499022600,7.457022705078125,-0.17273849336206912,0.8670075827077031,-0.5373722351726145
1647770393509073400,7.467073486328125,-0.44343174951970576,1.2752382549867034,-0.05973550677746534
1647770393519124500,7.47712451171875,0.12284078224897384,1.4100380628377198,0.28260756583511826
1647770393529175600,7.487175537109375,0.49511166787445543,1.2482505870789289,0.5047339210920035
1647770393539226600,7.4972265625,0.5358990208148956,1.2372700511202215,0.47046501013487574
1647770393549277400,7.50727734375,0.368292045122385,1.082260983455181,0.24461481204926966
1647770393559327500,7.517327392578125,-0.10737959374487399,0.41507220873683687,-0.20857498242948203
1647770393569378300,7.52737841796875,0.4783686228662729,0.7122931140750646,-0.489924036103487
1647770393579429400,7.537429443359375,1.0347954679250717,1.0736454230621457,-0.4971827750600874
1647770393589480400,7.54748046875,0.9018342736780643,1.0207444384798408,0.10584259343594311
1647770393599531500,7.557531494140625,0.6471469804257154,1.288985625310242,1.0993941968247294
1647770393609582300,7.567582275390625,1.1833318324446678,1.5715259711280465,1.5330577087849377
1647770393619633400,7.57763330078125,1.575889134773612,1.7851739825055002,1.9274596160672604
1647770393629684500,7.5876845703125,1.4057809899151323,2.4849717721447346,2.713224939718842
1647770393639734500,7.597734619140625,0.9274702347159385,3.1854625124841927,2.962127219828963
1647770393649785600,7.60778564453125,0.5810188500016927,2.9806589018195866,2.485857030546665
1647770393659836400,7.61783642578125,0.26143735203444957,2.970793633626401,1.8707701989874244
1647770393669887500,7.627887451171875,0.04676759639382362,3.4004666146457194,1.0326005882292986
1647770393679938600,7.6379384765625,0.1865074909955263,4.061412695582211,0.5684060366660356
1647770393689989600,7.64798974609375,1.2875976780831813,4.742856790146232,0.06634001960903406
1647770393700040700,7.658040771484375,1.4855436779379845,4.249259326227009,0.7307227969959378
1647770393710091300,7.66809130859375,1.0229285045206546,2.84077696839869,3.5389579704910514
1647770393720142300,7.678142333984375,1.9995184517145155,2.3804741635769604,5.970383738148212
1647770393730192400,7.6881923828125,2.3840403316259384,3.932559228914976,4.75242658252418
1647770393740243500,7.698243408203125,2.0596721839040515,4.9127562606900925,2.7765993875205517
1647770393750294500,7.70829443359375,2.397895838499069,4.18413978832364,1.9017659334927797
1647770393760345300,7.718345458984375,2.432909868735075,3.0987007593542337,0.7620254054933786
1647770393770396400,7.728396484375,1.8625544515669346,2.3085534212261436,-0.3726321201533079
1647770393780447500,7.738447509765625,0.5944003096222877,1.4901687073901295,-1.2156570619881153
1647770393790498600,7.74849853515625,-1.129524254411459,0.774555508981645,-2.1847043387174607
1647770393800549600,7.758549560546875,-1.759938711223006,0.6819108352929353,-2.1792852362781763
1647770393810600400,7.768600341796875,-2.1460031444013117,0.39220731984749435,-1.8972510864168404
1647770393820650500,7.778650390625,-2.305424475550651,-0.2337085103705525,-2.19693955091238
1647770393830701300,7.788701416015625,-2.2799504270762205,-0.9232809663325547,-2.806500020265579
1647770393840752400,7.79875244140625,-1.7815180903464554,-1.9835171649843453,-3.2596570449858904
1647770393850803500,7.808803466796875,-1.4288649283826351,-3.044038610318303,-3.3086317960351703
1647770393860854300,7.818854248046875,-0.6419821450084447,-3.4704061200514436,-3.24857860161066
1647770393870905300,7.8289052734375,-0.3140542589783668,-4.2607709003224965,-3.152617058458924
1647770393880956400,7.838956298828125,-1.3654255986511707,-4.948344291421771,-3.5844507246434687
1647770393891007500,7.849007568359375,-2.940991492819786,-5.198305725196003,-3.923834655189514
1647770393901057500,7.8590576171875,-4.085970505994558,-5.001249952179193,-3.8588510186254976
1647770393911108600,7.869108642578125,-4.127726411706209,-4.231161359478533,-3.445128763192892
1647770393921159400,7.879159423828125,-3.7586499382078644,-3.58360901312232,-2.1734119603306055
1647770393931210800,7.889210693359375,-4.250907385694981,-3.129763713876903,-0.9304021965146064
1647770393941261800,7.89926171875,-5.645927912142873,-2.6497362178876993,0.03448445340394973
1647770393951313000,7.90931298828125,-6.550220684888958,-2.2385111860983073,0.320974998152256
1647770393961363700,7.91936376953125,-6.231196820804477,-2.2377263193309305,0.20654957754909992
1647770393971414800,7.929414794921875,-5.3626165819525715,-2.351160390809178,0.4293734135508537
1647770393981465900,7.9394658203125,-4.312283353155851,-2.6665684024840592,0.01995440827012062
1647770393991516000,7.949515869140625,-3.776303083798289,-3.0012483931228515,-0.32255934473425146
1647770394001567000,7.95956689453125,-4.0783699678629635,-3.059257514499128,-0.6160831491202116
1647770394011617800,7.96961767578125,-4.7016988503277295,-2.803294502222538,-1.0762523906901478
1647770394021668900,7.9796689453125,-5.1198915291726586,-2.511189040201902,-1.5083639970332383
1647770394031720000,7.989719970703125,-4.9051551380366085,-2.002317873174697,-1.5460563065677881
1647770394041771000,7.99977099609375,-4.228720103806257,-1.4145328900389373,-1.3325526720970868
1647770394051821800,8.00982177734375,-3.285411079445481,-1.053983129606396,-1.1578168674379588
1647770394061873000,8.019872802734374,-2.2974311387091872,-0.7754886981785297,-1.0143781183183194
1647770394071922700,8.029922607421875,-1.7165455596983432,-0.4136221560589969,-0.8851414975523948
1647770394081973800,8.039973876953125,-1.7283651768296957,-0.10322789915921166,-0.7995294989794492
1647770394092024800,8.05002490234375,-1.9618699813216924,0.18147461139485238,-0.38701603481471536
1647770394102076000,8.060075927734376,-2.412382629013061,0.6078611180894077,-0.12509119152426718
1647770394112126700,8.070126708984375,-2.8994834243893624,1.1698550957560538,0.1856102498948574
1647770394122177800,8.080177734375,-3.1977742970466614,1.7723220997169613,0.502260955107212
1647770394132228900,8.090228759765624,-3.4944255858033895,2.2471374140158296,0.6730076901301741
1647770394142280000,8.100280029296876,-3.906148776373267,2.4827584800094367,0.45205900035053487
1647770394152330000,8.110330078125,-3.9641058753013607,2.417935586965084,0.131712363229692
1647770394162381000,8.120381103515625,-3.0745079828619954,2.4050907184392214,-0.12454057190418243
1647770394172432000,8.130431884765626,-1.3784738807946442,2.6633041399911046,-0.029541736304759977
1647770394182483000,8.14048291015625,-0.17799626775979996,1.7846832763791083,-0.7121797168284654
1647770394192533800,8.15053369140625,1.1031377672672271,1.4949167787000537,-0.5537681472435594
1647770394202584800,8.160584716796874,2.225899103415012,1.7374518618658183,-0.13467033625245092
1647770394212635600,8.1706357421875,2.6853409074932335,1.838457536664605,-0.10773001461774111
1647770394222686700,8.180686767578125,2.597988787254691,1.6970225285828113,-0.12929478069394826
1647770394232737800,8.19073779296875,2.295371283569932,1.6948144971445203,0.11298428188413381
1647770394242787800,8.200787841796876,2.019271199932694,1.7897734391249716,0.34242432115525007
1647770394252839000,8.2108388671875,1.9602678068220614,1.8014011869460342,0.43149420509710906
1647770394262890000,8.220889892578125,2.2220810064315795,1.8415341676309704,0.35957010174542664
1647770394272940800,8.23094091796875,2.5377497148692605,1.7028204012066124,0.1456578864738345
1647770394282991900,8.240991943359376,2.5071511629879475,1.3233365154623984,-0.28019802047535775
1647770394293043000,8.25104296875,2.3504513657569883,0.9415151266813278,-0.9423317037612199
1647770394303094000,8.261093994140625,2.3602292479276654,0.861047212998569,-1.1064793327800928
1647770394313144800,8.271144775390624,2.2977368436574936,0.5095869140811264,-1.1966620002694428
1647770394323196000,8.28119580078125,2.6018647519052025,0.7368794199295342,-0.7935328889131545
1647770394333245700,8.29124560546875,2.7500620937287805,0.9648229370325803,-0.25274609605669973
1647770394343296800,8.301296875,2.852459222885966,0.8401993630200624,0.24252003172710537
1647770394353347800,8.311347900390626,3.1629215948522087,0.793297034330666,0.8281307395637035
1647770394363399000,8.32139892578125,3.219752320098877,0.7423809399552643,1.2928667045272886
1647770394373449700,8.33144970703125,3.118952104744315,0.6283389657117426,1.482948400747776
1647770394383500800,8.341500732421874,3.0960487835407253,0.4825190205439925,1.4305246782884
1647770394393552000,8.3515517578125,2.992890022361278,0.26055487011149525,1.104811399567872
1647770394403603000,8.36160302734375,2.7851585415512323,0.0003144727766513824,0.8505570909053086
1647770394413653000,8.371653076171874,2.4088737441092727,-0.2341593228779733,0.6799559018328786
1647770394423703800,8.381703857421876,2.1436405069231985,-0.2101072700306773,0.7668173159450292
1647770394433755000,8.3917548828125,2.10633807348907,0.057089668443799015,1.2770591868035495
1647770394443806000,8.401805908203125,2.11070211391747,0.21875804786756634,1.648078903324157
1647770394453857000,8.41185693359375,2.252911613503098,0.21507307574450968,1.78598559114933
1647770394463907800,8.421907958984375,2.257163425728679,0.04182575607746839,1.7642624196410177
1647770394473958700,8.431958740234375,2.297401912614703,-0.15447335335314272,1.5660421328894794
1647770394484009700,8.442009765625,2.3837001398861406,-0.22261399264335632,1.5156861566148698
1647770394494060800,8.452060791015626,2.357561490023136,-0.16869915484339,1.5613238721959293
1647770394504110800,8.46211083984375,1.9167308629125355,0.311379486811161,1.9504646440796554
1647770394514162000,8.472161865234375,1.1034586697846651,0.23074615343362093,2.0620849441342055
1647770394524212700,8.482212646484374,0.28907588506639004,0.041835108427703376,1.6084049184530973
1647770394534263800,8.492263916015625,0.7234335167706012,0.040109599809348584,1.2295251360818742
1647770394544315000,8.50231494140625,1.6897732881069183,-0.1398614751547575,0.5972688507959246
1647770394554366000,8.512365966796875,1.164050793391466,0.05264905564785003,0.5307008676499128
1647770394564416800,8.522416748046876,0.8154051135033369,0.24945231520831584,0.4571452175736427
1647770394574467800,8.5324677734375,0.8047662305891513,0.24561843613386153,0.8275818735092878
1647770394584518000,8.542517822265625,-0.06579904460012913,0.49346799232065675,2.1610364628821612
1647770394594568700,8.552568603515626,-0.8175362803131342,1.1625655232697725,3.1951196908846495
1647770394604619800,8.562619873046875,-0.9780933374941349,1.6577362278550862,3.632695700113475
1647770394614670800,8.5726708984375,-1.3584586822479963,1.2262909764662384,3.3034108465164898
1647770394624721700,8.5827216796875,-1.60224522677958,0.17211743885427713,1.1191799705296754
1647770394634772700,8.592772705078126,-0.9227893834233284,-0.9597241525888442,-0.8659849616616964
1647770394644823800,8.60282373046875,0.06593348463475704,-1.9520545436196028,-1.7622461113825438
1647770394654875000,8.612875,0.29592881970107554,-2.197729678376764,-1.9635209633991122
1647770394664925700,8.62292578125,-0.8630933318734169,-1.5523491231016813,-1.8063748837053775
1647770394674976000,8.63297607421875,-2.48353530960083,-0.482712935680896,-1.2341484119683503
1647770394685026800,8.64302685546875,-3.7555519721925257,0.6446883352272212,-0.238398129491508
1647770394695078000,8.653077880859374,-4.305225835859775,1.1512950644537805,0.9334978244423866
1647770394705129000,8.66312890625,-3.8579116919487713,1.1333949583649634,1.9009417576283216
1647770394715180000,8.673179931640625,-2.221323466062546,1.3888779320396483,2.1583298342719672
1647770394725230800,8.68323095703125,-0.4252297378748655,1.1961033434733748,1.9048922488197684
1647770394735282000,8.693281982421874,0.5433318011641503,0.27841508258134123,0.867332284617424
1647770394745333000,8.7033330078125,0.4358510851323604,0.4808170389316976,0.27691023097634315
1647770394755383800,8.7133837890625,-0.355624871250987,0.8513222300589084,0.038194998359680175
1647770394765433900,8.723433837890624,-1.6547247710794208,0.7659853951655328,-0.252568401402235
1647770394775485000,8.73348486328125,-2.7271061655551194,1.2701271955832838,-0.6557336069852113
1647770394785535700,8.74353564453125,-2.49144272172451,1.627448933880031,-0.8346925822973251
1647770394795586800,8.7535869140625,-0.7720283285915851,1.5836314194634555,-0.8889958348929882
1647770394805638000,8.763637939453124,0.3334843511134386,0.8542753807760775,-0.2971282586187124
1647770394815689000,8.77368896484375,1.4904758736431598,0.2674035669624805,0.12984218544363973
1647770394825739800,8.78373974609375,3.0923353159755465,0.39538711892738937,0.14380173721313474
1647770394835790800,8.793790771484375,4.495939546373486,0.30088600371703506,0.839064221510291
1647770394845842000,8.803842041015624,5.444533817660808,-0.15479133326113223,2.0589467922389506
1647770394855892000,8.81389208984375,5.194289475291967,0.19764394816830752,3.0976375140368937
1647770394865943000,8.823943115234375,3.882487330278754,1.3703516568765044,3.555986846703291
1647770394875993900,8.833993896484374,2.7601725688546894,2.042167945265025,3.8921395402431487
1647770394886044700,8.844044677734376,1.9754460867315529,2.351004031203687,4.746707035833597
1647770394896095700,8.854095703125,1.1600199304401875,2.733897140869498,5.633370628386736
1647770394906146800,8.864146728515625,0.7116548161715268,3.848805133168399,5.989697510427236
1647770394916198000,8.874197998046874,1.0911638363569973,4.907547001609206,6.359504636287689
1647770394926248700,8.884248779296875,1.8877280557900666,5.263957470279932,6.418508029398322
1647770394936298800,8.894298828125,2.4837825623601675,5.415976416218281,5.7039352799534795
1647770394946349800,8.904349853515624,2.670971605879068,5.0714861024439335,4.968707865014672
1647770394956401000,8.91440087890625,2.926936663982272,4.029781001260877,3.0848166109085082
1647770394966451700,8.92445166015625,2.823725295832753,3.6756811476200815,1.1620634189665318
1647770394976502800,8.934502685546875,2.455394087743759,3.8587157018080354,0.7416057177990675
1647770394986553600,8.9445537109375,1.676989209857583,5.0275440848648545,1.3629495639264584
1647770394996604700,8.954604736328125,0.15917904682606457,7.088647178354859,3.254662889960408
1647770395006655700,8.96465576171875,-1.4462643914729356,8.266150743037462,4.828362990257144
1647770395016706800,8.974706787109374,-2.5973463976979256,8.400936814624071,3.456706972783804
1647770395026756900,8.9847568359375,-3.391242859226465,7.734015458670258,-0.13301029408574103
1647770395036807700,8.9948076171875,-3.82539736957401,6.169520993614197,-3.8867069938004013
1647770395046858800,9.004858642578125,-4.812874329224228,4.941323599004745,-7.015045935571194
1647770395056909800,9.014909912109376,-5.077210325309634,4.6732250355154275,-8.782391708180308
1647770395066961000,9.0249609375,-3.1256556940361855,4.116948412582278,-9.233562527519464
1647770395077011700,9.03501171875,-1.9270272159993647,3.7624849863260983,-9.41736368216574
1647770395087062800,9.045062744140624,-0.4361342859879136,3.7757314213901756,-8.714878260877727
1647770395097113900,9.05511376953125,0.6584168547198176,3.750493519759178,-7.7656041906327005
1647770395107165000,9.0651650390625,1.2664569826379417,3.3550159460693596,-7.267884386086464
1647770395117214700,9.075214599609374,1.6680059851959346,2.621130008867383,-7.680181577152013
1647770395127265800,9.085265869140626,1.7816954927399753,1.7193822444289921,-8.720890068513155
1647770395137316600,9.095316650390625,1.8687939304783938,0.7716419596225023,-9.38788273613751
1647770395147367700,9.10536767578125,2.6212606495097277,-0.22756664661467074,-10.208200171601773
1647770395157418800,9.115418701171874,3.640781099152565,-1.3251327512294053,-10.59660795303583
1647770395167469800,9.1254697265625,3.5561084272563455,-2.416243980616331,-9.750832251188159
1647770395177520600,9.135520751953125,3.80831413282603,-2.7816239376842975,-9.379010278373956
1647770395187571700,9.14557177734375,3.7894299841359254,-2.899696774879098,-8.096192235782741
1647770395197622800,9.155622802734374,1.9960545749962328,-2.7280659504979847,-6.756980690318346
1647770395207672800,9.1656728515625,-0.5594765880182385,-2.143297977095842,-5.578465318244695
1647770395217724000,9.175723876953125,-2.2111980856284497,-1.6359961052119731,-4.321321230614185
1647770395227775000,9.18577490234375,-2.444209553645551,-0.8033014187335967,-1.5469132156580685
1647770395237825800,9.19582568359375,-2.2350886643037198,-2.1640660398364067,-1.2740735951215028
1647770395247876600,9.205876708984375,-0.9800409644305705,-2.8381729233801365,-0.8290612984120845
1647770395257927700,9.215927734375,-0.39170185454338785,-1.8668290601462125,-0.8181663949102163
1647770395267978800,9.225978759765624,-1.139188447074592,-1.1049398482531307,-1.6271435211926697
1647770395278029600,9.236029541015625,-0.8632882699236273,-0.6124784026265144,-0.7438789234280586
1647770395288079600,9.24607958984375,0.15354922424554823,0.016899112352728844,-0.059097501134872436
1647770395298130700,9.256130615234374,0.9106222680285573,0.44155309616625305,0.5053092367619276
1647770395308181800,9.266181640625,1.5624688044473527,0.5469283643513918,0.6632675096213817
1647770395318232800,9.27623291015625,2.070061183710396,0.5538531951785087,0.1276706866234541
1647770395328284000,9.286283935546875,2.093047799283266,-0.402373178422451,-0.11461422117352485
1647770395338334700,9.296334716796874,2.422622283476591,-1.4636848973512648,0.32266835806667804
1647770395348385800,9.3063857421875,2.8045953556880354,-1.7141788305670023,1.1882616900622844
1647770395358436900,9.316436767578125,2.458126143056154,-2.087099704533815,1.172228839150071
1647770395368488000,9.326488037109375,2.0122028689816593,-2.6153660385131836,1.3054355325907467
1647770395378537700,9.336537841796876,1.0442489404469728,-2.7082132490366697,1.867159899535775
1647770395388588500,9.346588623046875,-0.2996820347547531,-2.2379390852987764,2.9557722978442906
1647770395398639600,9.3566396484375,-1.2766659497022628,-1.8401503120571374,3.9974487574547526
1647770395408690700,9.366690673828124,-1.387856918428838,-1.616295963963866,4.817652795672417
1647770395418741800,9.37674169921875,-1.7285832034945487,-1.2947101404368877,4.889439097988605
1647770395428792800,9.386792724609375,-2.128137817364931,-0.8915957882583141,4.586584862938523
1647770395438843600,9.39684375,-1.955253485791385,-0.37650048601925373,3.661795830130577
1647770395448894700,9.406894775390626,-1.4742878321692348,-0.2349491580814123,2.4184844530194995
1647770395458945800,9.41694580078125,-0.6759957660302519,-0.27553251288235187,1.7134037545412777
1647770395468995800,9.426995849609375,0.6505600037395953,0.14265490526556968,0.6836755068778991
1647770395479047000,9.437046875,2.0146789037063715,0.029165304207801817,-0.03337035468220711
1647770395489097700,9.44709765625,3.052608285742998,-0.6999772378593683,-0.32707623763680455
1647770395499148800,9.457148681640625,3.328781726877391,-0.8877104712575673,-0.4834264907777309
1647770395509200000,9.467199951171875,1.77290252995342,-0.5442886634975671,0.20829846704304217
1647770395519251000,9.4772509765625,-0.36997751399129625,-0.14172259285151959,1.603571506947279
1647770395529301800,9.4873017578125,-1.334255384361744,0.6294318755149841,3.2089725674092766
1647770395539352600,9.4973525390625,-1.4509695004239678,2.1971850501060484,4.433463508716225
1647770395549403600,9.507403564453124,0.4686582529738545,2.9310628040015696,2.9098598569750784
1647770395559453700,9.51745361328125,2.2935540050148964,1.3453648073971272,-1.6463941651076077
1647770395569504800,9.5275048828125,1.6255159199908376,0.595434913367033,-5.86740208710134
1647770395579555800,9.537555908203124,-0.21133301243335006,0.33464988776147364,-8.823171462336182
1647770395589606700,9.547606689453126,-0.30270079805403943,0.7449258021324873,-8.99069251331091
1647770395599657700,9.55765771484375,0.27687311383634805,3.3653877024799583,-3.1907103500097986
1647770395609708800,9.567708740234375,0.4024041580826044,4.757846854007243,-1.048032550638914
1647770395619759900,9.577759765625,0.3883306245446205,4.802628829541802,-0.4227332448840141
1647770395629810700,9.587810791015626,0.09810849205255508,3.654154375466704,-0.41036242361068725
1647770395639861800,9.59786181640625,-1.7673206381678581,2.8312732269942757,-0.5414496406793594
1647770395649911600,9.60791162109375,-2.655923674350977,2.1824223652601242,-0.7826327247142791
1647770395659962600,9.617962646484376,-2.1442641917794942,0.9710171154975891,-0.6023796179383992
1647770395670013700,9.628013671875,-1.830126346170902,-0.6967962697356939,-0.27189035698771474
1647770395680064800,9.638064697265625,-2.3889690201997755,-0.9532745380580425,0.25623335365056993
1647770395690115600,9.648115478515624,-2.7721079213202,-1.582582494932413,0.4498644129157066
1647770395700166700,9.658166748046876,-3.1337983762204646,-2.345073179849982,0.53326107352674
1647770395710217700,9.6682177734375,-2.0683369902662934,-2.170952876740694,1.6454577610403298
1647770395720268800,9.678268798828125,-0.9814892635427415,-2.2516233272582293,2.452033671399951
1647770395730318800,9.68831884765625,0.17822656938433645,-1.6858429629206657,3.2992636637091635
1647770395740370000,9.698369873046875,1.0141466476500034,-1.0699603048086166,3.4352228707283734
1647770395750420700,9.708420654296875,1.3101356731057165,-0.9382833051532506,3.5290047317534685
1647770395760471800,9.718471923828124,0.6877652604095638,-0.3923205709636211,2.170421546342969
1647770395770523000,9.72852294921875,-0.6762351277440786,0.0029535891085863113,0.9102595721960067
1647770395780574000,9.738573974609375,-1.367180041103065,0.27766660230159756,-0.14825170235931873
1647770395790624800,9.748624755859375,-1.9420295548200606,0.16073708992302416,-1.197768354076147
1647770395800675800,9.75867578125,-2.2758370004080235,0.20436405020356177,-1.520250249660015
1647770395810726700,9.7687265625,-1.2260694426700471,0.5572866767585277,-1.4818430698543785
1647770395820776700,9.778776611328125,-0.43347500365078445,0.6214712718993425,-1.2526327476859092
1647770395830827800,9.788827880859374,-0.8746127970144152,0.2999199351638555,-1.519862127125263
1647770395840878800,9.79887890625,-1.4503513685256242,1.630345532104373,-2.945312278628349
1647770395850929700,9.8089296875,-1.1197753060743212,1.5293693756610154,-2.31712075856328
1647770395860980700,9.818980712890625,-1.8497487460076807,0.39157881268560885,-1.6398223855018614
1647770395871031800,9.82903173828125,-1.6852286304146051,-0.6428086589604616,-1.142724512246251
1647770395881083000,9.839082763671875,-0.6243886206507683,-1.1519640497565269,-1.0198650252968073
1647770395891133700,9.8491337890625,0.07231383332163095,-1.245098845049739,-0.14639818344712258
1647770395901184800,9.859184814453124,-0.1392985805749893,-2.050261966001987,1.0713275015085935
1647770395911235800,9.86923583984375,0.34891719030588864,-3.0525246991127726,2.5931144592165944
1647770395921286000,9.879285888671875,0.9588953005492686,-3.103988928890228,3.4127918432116506
1647770395931337000,9.8893369140625,1.2323135977566242,-3.345114145258069,3.80668302449286
1647770395941387800,9.8993876953125,1.3166174363404513,-3.83706354970932,4.0529777524530886
1647770395951438800,9.90943896484375,0.836744254130125,-4.107546962508559,3.969156144428253
1647770395961490000,9.919489990234375,-0.5162295669659972,-4.00153690355122,3.2102170145124194
1647770395971541000,9.929541015625,-1.3543465707540512,-0.6752420250535011,0.3371522259712219
1647770395981592000,9.939592041015626,0.41544513370245695,1.1312234595447779,-0.8229752564966678
1647770395991643000,9.949642822265625,0.8703262057363986,-0.6567828237771988,-1.2232961785644292
1647770396001692700,9.959692626953125,1.1054197407245636,-1.4545441440403462,-1.7668284707367419
1647770396011743700,9.96974365234375,1.6718579844489692,-1.6142121434271335,-2.435004210665822
1647770396021794800,9.979794921875,1.6172651012569665,-2.2391046219468116,-2.8426597134053706
1647770396031846000,9.989845947265625,1.6116098519742488,-2.527705875238776,-2.8669834228008986
1647770396041896700,9.999896728515624,1.7186685432016848,-3.1193337975382804,-2.4103292036145922
1647770396051947800,10.00994775390625,1.562782108180225,-3.4488562592834233,-1.6790993338793516
1647770396061998800,10.019998779296875,1.134419625237584,-2.786718045952916,-1.550036316114664
1647770396072050000,10.0300498046875,1.776675618751347,-1.7683932358354328,-1.3779881431043148
1647770396082101000,10.04010107421875,2.3642668328806757,-1.3544073610305785,-1.3070692712724208
1647770396092151000,10.050151123046875,0.94404727550745,-0.334542920255661,-1.3530875106036662
1647770396102201900,10.060201904296875,-1.2218950795948504,0.12498363949656485,-0.5400654928445816
1647770396112253000,10.0702529296875,-0.5562573337107897,0.991683471429348,-0.7049830833226441
1647770396122303700,10.0803037109375,-0.37587767794579263,2.180972750973701,-2.49672036986649
1647770396132354800,10.090354736328125,-0.0842760737940669,4.007648079907894,-4.565579484310746
1647770396142405600,10.100405517578125,-1.6052976000875234,3.7932793530404565,-6.039645490422845
1647770396152456700,10.110456787109374,-1.460163737487793,2.814006450372934,-6.903816680660843
1647770396162507800,10.1205078125,-0.4566645944498479,4.175257978209853,-7.392656428658962
1647770396172558800,10.130558837890625,-0.300262172730267,3.5862037057906386,-5.65615353808105
1647770396182609000,10.14060888671875,-0.4122140428267419,0.19711071807444094,-3.095878687670827
1647770396192660000,10.150659912109376,0.612007277983427,-0.17266776621341703,-1.6780290742993353
1647770396202710800,10.160710693359375,0.1272340487718582,1.8164409351676702,-1.8107295717835425
1647770396212761900,10.170761962890625,-0.9008721506476401,1.1042951206088065,-0.08448796297907829
1647770396222813000,10.18081298828125,-1.2211164964377879,-0.6049789867818355,3.845593477645516
1647770396232864000,10.190864013671876,-2.2376420020483434,-0.4458516701430082,6.986985377734899
1647770396242914800,10.200914794921875,-5.1612067053794854,2.729595059761405,4.547962579077482
1647770396252966000,10.2109658203125,-5.940871812459826,2.674967982038855,3.0267882003098725
1647770396263017000,10.221016845703126,-4.354990860503912,2.4533102672070264,2.5803487934067846
1647770396273066800,10.231066650390625,-1.3670013235352934,3.2490631702572106,0.5123521410107612
1647770396283117800,10.241117919921875,2.464066054499149,1.050839424753189,-2.5617279718279837
1647770396293169000,10.2511689453125,0.7533728010255843,-0.034250644648075104,-2.757036608916521
1647770396303219700,10.2612197265625,1.279271163764596,0.003723404437303543,-1.8003244976252317
1647770396313270800,10.271270751953125,2.3919956745445727,0.0074801266223192215,2.5879429017975926
1647770396323321900,10.28132177734375,2.222501862192154,0.8746744640737771,4.941107325905561
1647770396333373000,10.291373046875,2.9041560923755165,1.0251187080413102,4.837635260993242
1647770396343423700,10.301423828125,2.713445888993144,-1.8468635459601879,-1.9186963177666068
1647770396353474800,10.311474853515625,1.7886475038349627,-3.983251305276155,-9.240093975114823
1647770396363524900,10.32152490234375,0.6264847161471844,-5.201380894857644,-10.366135648107528
1647770396373576000,10.331575927734375,-0.2879775684356689,-4.070271417081356,-10.370243667948245
1647770396383627000,10.341626953125,-0.9105997639358043,-2.2025562217503785,-7.455629309922457
1647770396393677800,10.351677734375,-1.5047405458390712,-2.2453619287759063,-4.064545440649986
1647770396403728600,10.361728759765626,-1.3057505898892878,-3.337310778030753,-2.7939482894673944
1647770396413779700,10.37177978515625,0.058353916225954885,-4.515187267678976,-2.0790064144492146
1647770396423830800,10.381830810546875,-0.927430560292676,-4.192326601910591,-1.3563459278777241
1647770396433881900,10.3918818359375,-0.7709739972330629,-5.775543887615203,-0.8954287905499339
1647770396443932700,10.4019326171875,-1.0425510504879056,-4.177029664057493,-0.22667758882045744
1647770396453982700,10.411982666015625,-3.62215823174715,-1.505012933039665,-0.8558359080910682
1647770396464033800,10.42203369140625,-5.569712687468528,0.10773381401002406,0.9229349293738603
1647770396474084900,10.4320849609375,-4.450456144571304,-0.3763005795329809,3.0217177651777862
1647770396484136000,10.442135986328125,-2.259974245365709,-0.9702958154857159,3.3245942120596763
1647770396494186800,10.452186767578125,-2.213721174365282,-0.31899931416511534,3.982628497202694
1647770396504237800,10.46223779296875,-2.2089352552630004,0.06993804410099982,4.259206719745696
1647770396514289000,10.472288818359376,-2.654377029430866,0.5073977334737777,5.493664051532745
1647770396524340000,10.482340087890625,-2.4423007974147795,0.20599486627578734,4.7416474143564695
1647770396534391000,10.49239111328125,-0.6996750400424003,-0.2796902170836925,2.9296885930389163
1647770396544440800,10.50244091796875,0.41635260393619533,0.5803337903469801,1.683266682691872
1647770396554491600,10.51249169921875,0.5717242213033139,0.8925035507529974,0.40326135943382974
1647770396564542700,10.522542724609375,0.8196293070696293,1.5786194365203379,-0.13519436012655495
1647770396574593800,10.53259375,1.611385687829554,1.6414111159980296,-0.9142597477480768
1647770396584644900,10.542644775390626,2.0834753765568137,2.101042889690399,-1.0957309981420635
1647770396594695700,10.55269580078125,2.7306059903696176,2.230657111597061,-1.2114309687256812
1647770396604746800,10.562746826171875,3.311723040048778,1.7622165930271148,-1.176505785816908
1647770396614797800,10.5727978515625,3.7717008506998417,1.0861375326275824,-0.9444199082121253
1647770396624849000,10.582848876953125,3.6282208927869797,0.6393699166834355,-1.1547659554347396
1647770396634899000,10.59289892578125,2.9636159970819946,0.9389514136731624,-1.1808408924117684
1647770396644950000,10.602949951171874,1.7208467640236018,1.4422048869490622,-0.8796677423164248
1647770396655000800,10.613000732421876,1.2212260942921043,1.951344495654106,-0.48037119486033913
1647770396665052000,10.623052001953125,1.4184744672715663,1.731051639434695,-0.6490048832520842
1647770396675103000,10.63310302734375,1.7110530997619031,2.2787901511251927,-0.5920037698745727
1647770396685154000,10.643154052734374,1.5904133346885443,3.071954206725955,-0.16366612911224365
1647770396695204600,10.65320458984375,-0.2348188097000122,3.1259464936763046,-0.18918840064257383
1647770396705255700,10.663255615234375,-1.047281147749722,3.703946872639656,-0.22529577907323836
1647770396715306800,10.673306640625,-1.5144459472954273,2.4324831677556036,0.18763737180829046
1647770396725356800,10.683356689453126,-2.5855855250164863,0.3520201247572899,0.43962212810367346
1647770396735407900,10.693407958984375,-3.460822299148142,0.5852414361327887,1.1171212844341993
1647770396745459000,10.703458984375,-4.55917487796545,-0.9554553892284631,4.355839294026792
1647770396755509800,10.713509765625,-3.893372004647553,-3.7472546839684244,4.93661585970521
1647770396765560800,10.723560791015625,-2.634410346201062,-3.77370956017375,2.4229373407751322
1647770396775612000,10.73361181640625,-4.257720865102112,-2.605067931860685,0.9621265375554561
1647770396785663000,10.7436630859375,-5.446621729850769,-2.3261299944490195,1.069195165655017
1647770396795713800,10.7537138671875,-5.062692555135488,-3.075885116434097,1.4585475344628094
1647770396805764900,10.763764892578125,-4.451603268779814,-3.2563439749151466,1.2655427904024719
1647770396815814700,10.773814697265625,-3.624124563384056,-3.1103380056560037,1.0784338263824582
1647770396825865700,10.78386572265625,-2.3417783760882913,-2.8339976835221052,1.2758648624524473
1647770396835916800,10.793916748046875,-1.2907906289055944,-2.3918518821597097,2.1751067815497516
1647770396845968000,10.8039677734375,-1.962601510466635,-1.1532745478332043,1.9380401929229496
1647770396856018700,10.814018798828124,-1.571245108360052,-0.31688685205578804,1.7279770542949437
1647770396866069800,10.82406982421875,-0.8513529174581169,1.1647457899183034,1.3550763463333249
1647770396876120800,10.834120849609375,-6.009838965702056,3.2885914630472657,0.1437736801624298
1647770396886172000,10.844171875,-3.7646611613214014,3.794856393098831,1.1976762918785213
1647770396896222700,10.85422265625,0.22918182672634718,2.0324457388043404,1.8725749103218317
1647770396906272800,10.864272705078125,-1.4407598027072845,1.9284370827972888,1.6070073266148566
1647770396916323800,10.87432373046875,-3.2068320482492445,3.2764486053109168,1.2302858913213013
1647770396926375000,10.884375,-2.380473579055071,4.793889642769098,0.3139116356372833
1647770396936426200,10.89442626953125,0.16619360176324843,4.170035859647393,-0.0675844667121768
1647770396946477000,10.90447705078125,0.27203407630734144,3.1221868488818405,-0.15129063166379927
1647770396956528000,10.914528076171875,0.04650565752200782,2.201689375787973,-0.13291384797394276
1647770396966579200,10.9245791015625,-0.7912707892000674,1.0536638345241547,0.3274322114676237
1647770396976630300,10.93463037109375,-2.5450199981331822,-0.9131529555499553,0.9153095490619539
1647770396986681300,10.944681396484375,-2.2323662536025046,-2.431755438002944,0.9146654059395194
1647770396996731400,10.9547314453125,-0.9930465764760971,-2.7620710959523915,0.9598507015779614
1647770397006782200,10.9647822265625,-0.36104280464649197,-2.987632832485437,1.2712442169144749
1647770397016833300,10.974833251953125,-0.8959832095623016,-2.1523481295138596,1.4909779779464005
1647770397026884400,10.98488427734375,-0.7506167072504758,-1.472319454705715,1.4916434561178087
1647770397036935400,10.994935302734374,-0.6415151120185851,-0.8226315576255321,1.3765788608282803
1647770397046986000,11.004986083984376,-0.6962333751559258,-0.23178747918009757,1.3679545326068996
1647770397057037000,11.015037109375,-0.79124740832448,0.3283423120498657,1.1820640044659376
1647770397067088100,11.025088134765625,-0.8471616032481193,0.930330300322175,0.8517693893045186
1647770397077139200,11.03513916015625,-0.8897311634302139,1.4752040702313183,0.36907208958417176
1647770397087189200,11.045189208984375,-0.5122527722895145,1.9704244591772555,0.023699147756397723
1647770397097240300,11.055240234375,-0.06265380537696183,2.543336575090885,-0.3677566230714321
1647770397107291100,11.065291015625,-0.0616004969317466,2.924027498537302,-0.5937576278045773
1647770397117342200,11.07534228515625,-0.5166758494287729,3.1717887919187544,-0.827027746757865
1647770397127393300,11.085393310546875,-0.8770371746171265,3.022307840025425,-1.238479426909983
1647770397137444400,11.0954443359375,-1.0566846436500548,2.4723949069052935,-1.6295616882503032
1647770397147495200,11.1054951171875,-1.2506173162102698,-0.5446621729850769,-0.7865335315451025
1647770397157546200,11.115546142578125,-1.1749416052401065,-1.2580430822968482,-1.2047022449925542
1647770397167597300,11.125597412109375,-1.140188271766901,-1.0705009875565767,-1.4032117239490152
1647770397177647000,11.135647216796874,-0.92133158583045,-0.7277355978786945,-1.73924838989377
1647770397187698200,11.1456982421875,-0.5628899766582995,-0.2765016501754522,-2.4195325007677075
1647770397197749200,11.155749267578125,-0.0988660324215889,-0.06291326003074646,-3.162055625672638
1647770397207800000,11.165800048828125,0.5812503206700086,-0.011425064855813979,-3.63544646012634
1647770397217851100,11.17585107421875,0.5345896187167615,-0.21422668804824352,-3.8413855045616625
1647770397227902200,11.185902099609375,0.21476503270864486,-0.38418051912784573,-3.7247052907690406
1647770397237953300,11.195953369140625,0.33227439080178733,-0.4083165969967842,-3.345860287450254
1647770397248004000,11.206004150390624,0.016664719074964522,-0.5392214432358742,-3.086857176825404
1647770397258055200,11.21605517578125,-0.7938257343798876,-0.5376455722212791,-2.6815885692223906
1647770397268105200,11.226105224609375,-0.18923839553045108,-0.0805137986510992,-1.9955363963410258
1647770397278156300,11.23615625,1.0206091216623783,0.3501052310466766,-1.4188596671968698
1647770397288207400,11.246207275390624,0.7679518729329109,0.9716694419264793,-1.4192013202413916
1647770397298258400,11.256258544921875,0.7558896792173385,1.1438041241765022,-1.59397394977957
1647770397308309200,11.266309326171875,0.9435936865210532,1.1280588580340147,-1.4621855987042187
1647770397318360300,11.2763603515625,0.3175380094408989,1.3285159639269113,-1.0289607704222201
1647770397328411100,11.2864111328125,-0.6993243269085884,1.4824918891519308,-0.5771852631881833
1647770397338462200,11.296462158203125,-1.5771733293652535,1.7063503288984299,-0.36213615284115075
1647770397348513000,11.306512939453125,-2.098946794193983,1.947571991378069,0.05410246932655573
1647770397358563000,11.31656298828125,-2.2107716769099235,2.364139114847779,0.9399185051396488
1647770397368614100,11.3266142578125,-2.3529598414465784,2.7844693902432915,2.478913495019078
1647770397378665200,11.336665283203125,-2.8631331771135327,2.935783987304568,4.1484561882629984
1647770397388716300,11.34671630859375,-3.0067598500207064,3.2235791849106548,4.985408239924907
1647770397398767400,11.356767333984376,-2.208658045756817,3.7352497733980417,4.54024396752417
1647770397408818200,11.366818115234375,-1.188781768413633,4.168607288148999,3.4603719250321388
1647770397418869200,11.376869140625,-1.022255281434208,4.2277784390419715,2.7097730456992983
1647770397428920300,11.38692041015625,-1.4552001237310468,3.7953479760080575,2.3040531871974466
1647770397438971400,11.396971435546876,-1.633122595602274,2.7556927930921313,2.16085233848691
1647770397449021200,11.407021240234375,-1.3960172824002801,1.1503811644792556,2.75785844669342
1647770397459072000,11.417072021484374,-1.331835609868914,0.41651977719664574,3.2776533049255607
1647770397469123000,11.427123046875,-1.367988288746029,0.08491466395854949,3.2714728627249596
1647770397479174100,11.437174072265625,-1.414807323066145,0.0967699369251728,2.827842668023705
1647770397489225200,11.44722509765625,-1.4857003298044205,-0.08364800502359866,2.3670722456902262
1647770397499276300,11.4572763671875,-1.445460820005089,-0.24244506679475306,1.9123457796961068
1647770397509327000,11.4673271484375,-1.3589257152378558,-0.39895898606479163,1.5938728274926541
1647770397519378200,11.477378173828125,-1.3539257149934767,-0.8065221343457698,1.3830942340716719
1647770397529429200,11.48742919921875,-1.298201928075403,-1.1178478451430798,1.043700074392557
1647770397539479300,11.497479248046876,-1.2328102952323854,-1.1815063705831765,0.6295774214655161
1647770397549530400,11.5075302734375,-1.0557963165082036,-1.26292617816329,0.4031906322851777
1647770397559581200,11.517581298828125,-0.9572400806881487,-1.5772235982477665,0.5007192786231637
1647770397569632300,11.52763232421875,-1.1310394812799989,-1.5457102696090936,0.9754814014300703
1647770397579683300,11.537683349609376,-1.0641315986551343,-1.5803881997585296,1.729110442239046
1647770397589734400,11.547734375,-0.9582989420913159,-1.6789263154000043,2.1901766326487064
1647770397599785200,11.55778515625,-1.1661293532311916,-1.4316922607630491,2.2893571378469466
1647770397609836000,11.5678359375,-1.2155416189149022,-0.7676257097184658,2.3615920607134697
1647770397619887000,11.57788720703125,-1.7959199790559708,-0.382622768291831,2.373447625941038
1647770397629937200,11.587937255859375,-2.010799578054994,0.07514671865999699,1.5490490586429833
1647770397639988200,11.59798828125,-1.332520523393154,0.9199088595509528,2.0911054330438374
1647770397650039300,11.608039306640626,-0.5992635317444801,1.1864268758505583,1.0314727532431482
1647770397660090000,11.618090087890625,-0.23361498686820267,1.1488450409531592,1.1118412982046604
1647770397670141200,11.62814111328125,0.25557883526459335,1.3580933560669421,0.799873197850585
1647770397680192300,11.638192138671876,0.1694492425583303,1.3955565330207347,0.33586773911863566
1647770397690243300,11.648243408203125,0.06536927488073706,1.1296575254023073,0.057341597378253936
1647770397700294100,11.658294189453125,-0.3117161714196205,0.6788941178202629,-0.00032411738783121106
1647770397710345200,11.66834521484375,-0.654950932174921,0.262507027092576,0.255429343791306
1647770397720395300,11.678395263671876,-0.6010417934633792,0.2079226194679737,0.5387661006838083
1647770397730446000,11.688446044921875,-0.4396421479783952,0.43700025516748425,0.6893772256508469
1647770397740497200,11.6984970703125,-0.8540098617076873,0.5457686729222536,0.5998024609267711
1647770397750548200,11.70854833984375,-0.5219852078832685,0.6623544864296913,0.5143333779558539
1647770397760599000,11.71859912109375,0.1279670392215252,0.9659691844582557,0.21974925086200237
1647770397770650000,11.728650146484375,0.656734746851772,0.9811626619368791,0.04079699755162
1647770397780701200,11.738701171875,0.7046117657922207,0.8002619049072265,-0.25136837796270844
1647770397790752300,11.748752197265626,0.47711131628155706,0.680755235517025,-0.5604954096719622
1647770397800803000,11.758802978515625,0.29330490093827244,0.5712596725314856,-0.9218938958883285
1647770397810853000,11.76885302734375,0.3065443217396736,0.5838187098532914,-1.1581935917958617
1647770397820904200,11.778904296875,0.3519968900121748,0.49661272008717056,-0.8904650306627154
1647770397830955300,11.788955322265625,0.46675125030875203,0.46395665115416046,-0.277826176777482
1647770397841006300,11.79900634765625,0.721010235146433,0.42755087429881095,0.19433190101087092
1647770397851057400,11.809057373046874,0.8972316021881998,0.7023644252568483,0.4890571901410818
1647770397861108200,11.819108154296876,0.6446526793919504,0.7077385195106267,0.9261696735113859
1647770397871159300,11.8291591796875,0.6125215111158788,-0.06550503008961678,1.1158473189756273
1647770397881210400,11.83921044921875,0.37923195680975913,0.11177286026775836,-0.06326455768644809
1647770397891261200,11.84926123046875,0.7292411801360547,0.48778585503101346,-0.7782321516677737
1647770397901311200,11.859311279296875,1.2556709463380276,0.37452421751022336,-0.9718497669294476
1647770397911362000,11.869362060546875,1.1088099676847458,0.30067046127021313,-0.8570049518704413
1647770397921413000,11.8794130859375,1.0094412464380265,0.3903074775755405,-0.6897618410542606
1647770397931463400,11.88946337890625,0.7978675571165978,0.31582009960711,-0.40550066279321906
1647770397941514500,11.899514404296875,0.4564985902331769,0.1057715740263462,0.11643296103328465
1647770397951565600,11.909565673828125,0.2730417189799249,-0.2158347077667713,0.6914309433102608
1647770397961616600,11.91961669921875,0.248263982206583,-0.6783440827220678,0.9222001853585242
1647770397971667500,11.92966748046875,0.40175460813269015,-1.1171399891346692,0.8784399540871382
1647770397981718500,11.939718505859375,0.40843583946228024,-1.3583873705774545,0.7511480376482009
1647770397991768600,11.9497685546875,0.33190088131427764,-1.2319032633900642,0.3864093010932207
1647770398001819600,11.959819580078126,0.12805457137450574,-1.2236650118768215,0.49088352878540753
1647770398011870700,11.96987060546875,0.07021043130159378,-1.1291238569170237,0.7264414664149283
1647770398021921500,11.979921630859375,0.12898644539713858,-0.9101391606867313,0.8397679858654737
1647770398031972600,11.98997265625,0.09493088492974638,-0.4797907646238804,1.0739408988773822
1647770398042023700,12.000023681640625,0.07795651538372039,-0.14589374105632305,1.3942650319054721
1647770398052074800,12.01007470703125,-0.092192838267982,-0.09465572125017642,1.2961948260366916
1647770398062125600,12.02012548828125,-0.345525063649565,-0.294475113761425,0.5545666041448712
1647770398072176600,12.0301767578125,-1.1592298029758035,-0.49321197173297404,-0.23101386445909738
1647770398082226400,12.040226318359375,-0.3177235951408744,-0.29629297683835026,-0.9841220962643623
1647770398092277500,12.050277587890625,0.734726479679346,-0.013199673312902449,0.05756400795727968
1647770398102328600,12.06032861328125,0.7409371708877385,0.017474281892180442,0.7293849725209176
1647770398112379600,12.070379638671875,0.9920815308362245,0.04466740924417972,0.6327161578826606
1647770398122430500,12.080430419921875,1.2284962314255534,0.2811661348551512,-0.15356149920523166
1647770398132481500,12.0904814453125,1.3177939327739179,0.3302303177535534,-0.3789746210478246
1647770398142532600,12.10053271484375,1.3153499006226659,0.19472703780829906,-0.28088761017471553
1647770398152583700,12.110583740234375,1.526676775576174,-0.23406769907176495,-0.0733835083797574
1647770398162634500,12.120634521484375,1.9700977114409206,-0.26320260814130303,0.42014615100026126
1647770398172684500,12.1306845703125,1.6989736626505851,-0.28513094683289525,1.117602930471301
1647770398182735600,12.140735595703125,0.8353662437751889,-0.05554010091423988,1.7609337136097252
1647770398192786700,12.15078662109375,-0.7617898431718348,0.25919278797805306,2.0424634210802615
1647770398202837800,12.160837646484374,-1.8656021486997603,0.46275428962707515,2.030451788508147
1647770398212888600,12.170888671875,-2.075841520677507,0.17567922298908234,1.7484190999515354
1647770398222939400,12.180939453125,-1.4191615727528928,-0.2733703664124012,1.4868766801074147
1647770398232990500,12.190990478515625,-0.6902931714519858,-0.7678887445688247,1.0073549416832626
1647770398243041500,12.20104150390625,-0.4030173215448856,-1.0499024361640215,0.7180144143313169
1647770398253092600,12.211092529296875,-0.6647288143455982,-1.2190548877328633,0.8060643075756728
1647770398263142700,12.221142578125,-0.8838736695736646,-1.3809230275124311,1.0297456371895968
1647770398273193500,12.231193359375,-0.9675026776358485,-1.4473726449757813,1.5875395328179
1647770398283244500,12.24124462890625,-0.82221567030102,-1.248420098426938,1.7594959358915685
1647770398293295600,12.251295654296875,-0.4015326359450817,-1.0776870996683836,1.626179790727049
1647770398303346700,12.2613466796875,-0.07571838106811046,-1.0545920552849768,1.5524074291601777
1647770398313397800,12.271397705078124,0.22946195884197948,-0.8649193782567978,1.2375094128340483
1647770398323448600,12.281448486328125,0.41708237951546906,-0.6542044977217912,0.8699481662042439
1647770398333499600,12.291499755859375,0.6352360317490995,-0.30700784759819505,0.6800741213850676
1647770398343550700,12.30155078125,0.6435372654959559,0.3702268125772476,0.35194209108501673
1647770398353600500,12.3116005859375,0.5381517681777477,2.0577315712302924,0.7031839249461889
1647770398363651600,12.321651611328125,0.7886554921351373,3.8494396316796538,1.5682811439879238
1647770398373702400,12.331702392578125,1.1434250617310404,4.40799822807014,2.1979377681694925
1647770398383753500,12.34175341796875,1.7361752660587428,4.464223388639092,1.8518793282955883
1647770398393804500,12.351804443359375,1.8468565316975116,4.400879335975647,0.3827661222852766
1647770398403855600,12.361855712890625,1.818873130750656,3.7951720349192617,-0.9086506756946444
1647770398413906700,12.37190673828125,1.9247674543738365,3.501860119718313,-1.6902807992376385
1647770398423957500,12.38195751953125,2.5539853948771953,3.3608477209627625,-2.3914865559786556
1647770398434008600,12.392008544921875,2.200526469488442,4.2680631031572815,-2.505548988488316
1647770398444058600,12.40205859375,2.9528070182979107,3.04473419136703,-2.7113264126211405
1647770398454109700,12.412109619140624,2.8873768070101735,2.164218600049615,-2.7861224181473254
1647770398464160800,12.422160888671876,2.444018999509513,2.5962621095925567,-2.699042392848432
1647770398474211600,12.432211669921875,4.162076425075531,2.0874632771492,-0.898869578653574
1647770398484262700,12.4422626953125,1.7802876717686653,3.473761567959189,-0.2515057406067848
1647770398494313500,12.4523134765625,3.8624902519106863,3.4625463464617727,-0.11079612419009208
1647770398504364500,12.462364501953125,5.8117702162504195,2.8878730660945173,-0.2959069001302123
1647770398514415600,12.47241552734375,4.63603132315278,3.9922032580167053,-0.11119096872657537
1647770398524466400,12.482466552734374,6.598282997268438,2.727604762727022,1.0666279455155134
1647770398534516500,12.4925166015625,5.306362195289135,1.4369956278681755,-0.46243718650192017
1647770398544567600,12.502567626953125,3.7092835574924945,0.9530395602583884,-2.403352934861183
1647770398554618600,12.51261865234375,4.481465615341067,-0.3751449797570705,-3.6604163584709166
1647770398564669700,12.522669677734376,4.638379347583651,-1.0844511869758366,-5.180141707473993
1647770398574720500,12.532720458984375,3.565643148320913,-1.16577805557549,-5.705349238404631
1647770398584771600,12.542771484375,2.4628292061805723,-0.5724608650147914,-6.133154379725456
1647770398594822700,12.55282275390625,0.7391500682752579,-0.31108897943198677,-6.4131070471376175
1647770398604873700,12.562873779296876,-2.532171037954092,-0.68430795956254,-6.1944356546401975
1647770398614924500,12.572924560546875,-0.8695214652247727,-0.0357668944299221,-5.467547028979658
1647770398624974600,12.582974609375,-0.7662440461017191,0.4759767592936754,-3.7481852428168057
1647770398635025400,12.593025390625,0.04955591193810105,0.19952830061018464,-3.2220991754859685
1647770398645076500,12.603076416015625,0.3025574440605938,-0.2634977916955948,-3.2769004407316444
1647770398655127600,12.61312744140625,0.7996002261281013,-1.2191080792248248,-3.2358518065065143
1647770398665178600,12.6231787109375,1.5160805627599359,-1.893358170631528,-3.6088638658881185
1647770398675229400,12.6332294921875,2.4907369115427134,-1.707049417078495,-4.372483262574672
1647770398685280500,12.643280517578125,0.09449000929445028,-2.7471377307146785,-4.3911563988626
1647770398695331600,12.65333154296875,-0.45446693827509876,-3.189394006714225,-4.207963731503487
