time,seconds_elapsed,z,y,x
1647770405062604500,0.0116044921875,-1.8874387174546718,0.950703518526256,-0.6311755043119192
1647770405072655600,0.021655517578125,-1.4895827241957187,1.1260273522064088,-0.7551258552379906
1647770405082706700,0.031706787109375,-0.7751070053845643,0.9363874084040522,-0.5545896927595139
1647770405092757800,0.0417578125,0.06713935329318046,0.7973179604098201,-0.4469828661300242
1647770405102808800,0.051808837890625,0.7400882989734411,0.5815384899616242,-0.5702333982236683
1647770405112859600,0.061859619140625,1.1771201183229685,0.32420302028805015,-0.5865791144773363
1647770405122909700,0.07190966796875,1.3835346713155507,0.034523324109613895,-0.6227801625408231
1647770405132960800,0.081960693359375,1.5013625938385724,-0.3755918467417359,-0.5236563559658826
1647770405143011800,0.09201171875,1.4337497778147459,-0.6694385994717479,-0.3711125093705952
1647770405153063000,0.10206298828125,1.2498019081741572,-0.8673954129815101,-0.20867694496661424
1647770405163113700,0.11211376953125,0.9742150347560644,-0.9765978382393717,-0.1836342736467719
1647770405173164800,0.122164794921875,0.6872820069372654,-1.0113520484954117,-0.18616160016730426
1647770405183215900,0.1322158203125,0.5628396347105503,-0.9042676383048296,-0.161627024500072
1647770405193267000,0.142266845703125,0.6698124012202024,-0.7466074716091156,-0.12505232081860304
1647770405203317800,0.15231787109375,0.8010124310135841,-0.6338181277751922,-0.21099866591244934
1647770405213368600,0.16236865234375,0.992535704344511,-0.567588290542364,-0.28531244087964297
1647770405223418600,0.172418701171875,1.2057722123116255,-0.7462763399586081,-0.2558504918128252
1647770405233469700,0.1824697265625,1.133916351890564,-0.45229894658625125,-0.34911519709601996
1647770405243520800,0.192520751953125,1.4639900177776812,-0.45395781970918175,-0.2652060569182038
1647770405253571800,0.20257177734375,1.3269745797038077,-0.544678831858933,-0.01420095930993557
1647770405263622700,0.21262255859375,0.9254366830617189,-0.6180412974506616,0.25164456455558537
1647770405273673700,0.222673828125,0.4018254814118147,-0.6574021247193217,0.47580476372763514
1647770405283724800,0.232724853515625,-0.022591771036386488,-0.6925143546327949,0.4665909451805055
1647770405293776000,0.24277587890625,-0.3351613444149494,-0.6313932387158274,0.39306554411202665
1647770405303826700,0.25282666015625,-0.5172650474935769,-0.5460568422138691,0.2789776849001646
1647770405313877000,0.262876953125,-0.669214435327053,-0.6010702889055013,0.26847835658714175
1647770405323927600,0.272927490234375,-0.8482873924076557,-0.7681491490706801,0.4385571292206645
1647770405333978600,0.282978515625,-0.9970137265413999,-0.8276564000502228,0.7158068212844431
1647770405344029700,0.29302978515625,-1.048989412972331,-0.8300216678768396,0.8151363795645534
1647770405354080800,0.303080810546875,-0.991468951895833,-0.9505380988314748,0.7473812324605882
1647770405364131600,0.313131591796875,-0.698284462466836,-1.0979413676679133,0.63432125499174
1647770405374182700,0.3231826171875,-0.287002001401782,-1.1937599952176212,0.5779745138697325
1647770405384233700,0.333233642578125,0.07669394810199737,-1.2045733579158782,0.6371355817601084
1647770405394284800,0.343284912109375,0.2888888380616903,-1.1296551873147487,0.6903647753834724
1647770405404335600,0.353335693359375,0.30557576896846295,-1.1299988861858845,0.7463597804583608
1647770405414386000,0.363385986328125,0.18529577711820602,-1.2926438555568456,0.8147402198538184
1647770405424436700,0.373436767578125,0.0653951399743557,-1.4391145197182893,0.801162799269706
1647770405434487800,0.38348779296875,-0.021859365108609197,-1.4629296950697899,0.6453764636218547
1647770405444539000,0.393538818359375,-0.18371347636282442,-1.3860750034481286,0.4852759180366993
1647770405454590000,0.40358984375,-0.4633236139476299,-1.181134322400391,0.29102497330754995
1647770405464640800,0.413640869140625,-0.738725193926692,-0.8647226866409182,0.09134396635368466
1647770405474691800,0.42369189453125,-1.0542033482283353,-0.5694312880605459,-0.06158464177548885
1647770405484742700,0.43374267578125,-1.558933908319473,-0.3884989668488502,-0.2344637126520276
1647770405494793700,0.443793701171875,-2.2329858468055725,-0.18228724295198917,-0.36760391672775145
1647770405504843800,0.45384375,-2.906180876201391,0.14039397459626196,-0.502840070169419
1647770405514894800,0.463894775390625,-3.412242977157235,0.3306976430043578,-0.6922381680399179
1647770405524945700,0.473945556640625,-3.3794162278324364,0.5391714666143059,-1.0747063302919269
1647770405534996700,0.483996826171875,-2.8112919307172297,0.8064207197979092,-1.4385393501788377
1647770405545047800,0.4940478515625,-1.9851286918342113,0.9283511092036962,-1.4306734391093254
1647770405555099000,0.504098876953125,-1.1319050120681524,0.9225389157935976,-1.6919272512704133
1647770405565149700,0.514149658203125,-0.15722528240978717,0.7969234081342816,-1.6447281315915285
1647770405575200800,0.52420068359375,0.6551812337994575,0.7312643565267324,-1.2287770941935479
1647770405585251800,0.534251953125,1.3901532126724718,0.6491928070396185,-1.631323583356291
1647770405595303000,0.544302978515625,1.7307605475336312,0.37412440453767776,-1.9125129529565572
1647770405605352700,0.554352783203125,1.4760843601971865,0.657045274105668,-1.2261271642066538
1647770405615403800,0.56440380859375,0.8418067982167005,1.4822589571788907,-0.24202128842473028
1647770405625454600,0.57445458984375,0.8122147930294275,0.7936939246937632,-1.648722169663757
1647770405635505700,0.584505615234375,0.600640080794692,-0.0028176877692341804,-2.774399831649661
1647770405645556700,0.594556640625,0.05798223336935043,-0.34042496403157707,-3.397738066464662
1647770405655607800,0.60460791015625,-0.5790688849776983,-0.24803075797259805,-3.664617609553039
1647770405665658600,0.61465869140625,-1.121431548848748,0.2990525046795606,-3.109166916050017
1647770405675709700,0.624709716796875,-1.5211094968378542,0.8629740894079208,-2.462905778548121
1647770405685760800,0.6347607421875,-1.6457342398941517,1.3122133561626077,-1.9551719449877738
1647770405695810800,0.644810791015625,-1.4180465972483158,1.5700380706578492,-1.4649943725146353
1647770405705862000,0.65486181640625,-0.9654869538992643,1.6397221399977802,-1.2531721152596176
1647770405715912700,0.66491259765625,-0.4030430405080318,1.493826645375788,-1.2373130134791135
1647770405725963800,0.6749638671875,0.009011573973298072,1.3716598168656229,-1.1905008472912013
1647770405736014800,0.685014892578125,0.11567220579385756,1.3516717985868454,-1.1372773527562619
1647770405746066000,0.69506591796875,0.1800894406467676,1.3918357589319348,-1.1951904664121566
1647770405756117000,0.705116943359375,0.4122995291531086,1.4211723280534148,-1.3354735279798506
1647770405766167600,0.71516748046875,0.7723392942368984,1.2735761669933796,-1.573932447747886
1647770405776218600,0.725218505859375,1.2564508446693419,1.191735211391747,-1.586990520633012
1647770405786269700,0.735269775390625,1.7518138569563626,1.2564280483156443,-1.7049430924490092
1647770405796319700,0.74531982421875,2.040347890231013,1.2625538377195595,-1.6367345024891198
1647770405806370800,0.755370849609375,2.2096230913966894,1.2263190335169434,-1.5492670853078365
1647770405816421600,0.765421630859375,2.2289070530593396,1.1724074105873703,-1.4639644449450075
1647770405826472700,0.77547265625,1.9462416195571421,1.1551850576296447,-1.2782330528885126
1647770405836523800,0.785523681640625,1.3432558524191378,1.1672595263049006,-1.0874188046097755
1647770405846574800,0.795574951171875,0.5237970796108246,1.1708949601978063,-0.9813988087803125
1647770405856626000,0.8056259765625,-0.4835211833238601,1.2609557548731565,-0.9213314396999776
1647770405866676700,0.8156767578125,-1.488153568175435,1.502913038150966,-0.8343874618709087
1647770405876727800,0.825727783203125,-1.8359891007244586,1.7455816845685244,-0.7323407535865902
1647770405886779000,0.83577880859375,-1.842448652127385,1.9086948559731245,-1.1259585247538983
1647770405896828700,0.84582861328125,-1.7267881367713211,1.8252955650135874,-0.9718336925774812
1647770405906879700,0.855879638671875,-1.2112515205055474,1.6419827784061432,-0.5805270478967577
1647770405916930600,0.8659306640625,-0.8425380351006985,1.582500661867857,-0.5143894920572638
1647770405926981600,0.875981689453125,-0.6446569171756505,1.537268312217295,-0.4955833770394325
1647770405937032700,0.88603271484375,-0.9852987388283013,1.4748624171867966,-0.49401137848235666
1647770405947083500,0.89608349609375,-1.4945768792212009,1.4052365077748894,-0.5321623915698379
1647770405957134600,0.906134521484375,-2.040590466815233,1.444312672883272,-0.6555401302397251
1647770405967185400,0.916185302734375,-2.381371989199519,1.5593728842586279,-0.615132643462345
1647770405977236500,0.926236572265625,-2.7699726628571746,1.652342844378948,-0.6340467488992959
1647770405987286500,0.93628662109375,-2.8728935236275195,1.703651006811857,-0.5457235186062753
1647770405997337600,0.946337646484375,-2.5498341204166413,1.7150760716676712,-0.2169264485262334
1647770406007388700,0.956388671875,-2.1658961778730155,1.6806772507205605,0.12331081091351806
1647770406017439500,0.966439453125,-1.840180707195401,1.7319444966211914,0.3581199760023504
1647770406027490600,0.976490478515625,-1.6997195125818252,1.778400542847812,0.48483168140053745
1647770406037541600,0.986541748046875,-1.6548112803190946,1.6723796702355145,0.4031979022761807
1647770406047592700,0.9965927734375,-1.7658967428445815,1.5810212369650603,0.3098464320249855
1647770406057643800,1.006643798828125,-2.258067096570134,1.7436159374535083,0.3590405249133706
1647770406067694600,1.016694580078125,-2.8122113836497067,2.091966433787346,0.18069456693306565
1647770406077745700,1.02674560546875,-3.21555077675581,2.3895436052173373,-0.11616554226875304
1647770406087795500,1.03679541015625,-3.3944460391819473,2.489911274373531,-0.27692542854547497
1647770406097846500,1.046846435546875,-3.346027752971649,2.5687498332887886,-0.27321839072108267
1647770406107897600,1.056897705078125,-3.1501006917238232,2.8399522080123423,-0.11781140977963804
1647770406117948400,1.066948486328125,-2.811200160780549,3.253402660766244,0.13861965840011833
1647770406127999500,1.07699951171875,-2.587439920711517,3.600871698090434,0.4512760332792997
1647770406138050600,1.087050537109375,-2.5959698486477136,3.806301916220784,0.8489775666289031
1647770406148101600,1.0971015625,-2.692480842375755,3.9563340722560882,1.175479657639563
1647770406158152700,1.107152587890625,-2.747829220110178,4.073437479896843,1.279522508177161
1647770406168203500,1.11720361328125,-2.87155029232502,4.102407846054435,1.2169355574913323
1647770406178254600,1.127254638671875,-2.761770067179203,4.180753068494797,1.0810356794439255
1647770406188304600,1.1373046875,-2.3851398173004386,4.21899892025888,0.8986807780832051
1647770406198355700,1.147355712890625,-2.004472859251499,4.2218145622015,0.8906918251559138
1647770406208406800,1.15740673828125,-1.636714482614398,4.37450161665976,1.063517704540491
1647770406218457600,1.16745751953125,-1.249048459458351,4.590072705054283,1.3150133621446787
1647770406228508400,1.17750830078125,-0.7088426813602448,4.707623564201593,1.3741368745036422
1647770406238559500,1.1875595703125,-0.20845044273436067,4.749706802171469,1.4217439904615283
1647770406248610600,1.197610595703125,0.12122983992099762,4.77343576054424,1.5573568682610988
1647770406258661600,1.20766162109375,0.3398269981384277,4.715916468511521,1.6921739195078611
1647770406268712400,1.21771240234375,0.6248918939977884,4.595306514054537,1.6747265256226063
1647770406278763500,1.227763427734375,1.0036714308649302,4.405666862513125,1.4920555440500378
1647770406288813600,1.2378134765625,1.3097890516251325,4.204291472731531,1.1204027903228997
1647770406298864600,1.24786474609375,0.9377332700550556,3.9260233974054453,0.5905446571074425
1647770406308915700,1.257915771484375,1.257935530269146,3.7095875088751313,0.23537395936474204
1647770406318966500,1.267966552734375,2.362525834432244,3.6967744967922567,0.30209457578919824
1647770406329017600,1.278017578125,2.2965894271880387,4.412878109066188,-1.51966280516088
1647770406339068700,1.288068603515625,2.6548499076396226,4.5764293796271085,-2.778918770378828
1647770406349119700,1.29811962890625,3.672832187929749,2.5374308581784364,2.427818098554015
1647770406359170600,1.308170654296875,4.0987867329478265,3.942223713839054,0.7080461972203105
1647770406369221600,1.3182216796875,5.0507700621515506,4.449036340901255,0.24574403527490793
1647770406379272700,1.328272705078125,5.614430950117111,4.158417902567982,0.8801838020797819
1647770406389322500,1.338322509765625,5.162291578006744,4.258997168648243,0.7078840654611587
1647770406399373600,1.34837353515625,4.151657906913757,4.363550891317427,0.7251609981503337
1647770406409424600,1.358424560546875,4.627354095700383,4.21315107101351,0.3896566124513745
1647770406419475500,1.368475341796875,4.291043581250309,3.598525719486177,0.8128042833551764
1647770406429526500,1.378526611328125,3.7258313721895218,3.553711302986741,0.6277914148315787
1647770406439577600,1.38857763671875,3.8761078583747146,4.538401262266934,0.49249805130995805
1647770406449628700,1.398628662109375,3.985687592512369,4.726748828171194,0.48691615952439604
1647770406459679500,1.408679443359375,4.143922928747535,4.276977354235947,0.5701302666427567
1647770406469730600,1.41873046875,4.2804765945285554,3.8843309123188257,0.6275542450748384
1647770406479780600,1.428780517578125,4.604100645884871,3.62598158942759,0.43320422388538715
1647770406489831700,1.438831787109375,5.071083951383828,3.4914953775703905,0.8172181542746723
1647770406499882800,1.4488828125,5.424483547800779,3.5718227137386798,1.2031501201797277
1647770406509933600,1.45893359375,5.378821282300353,3.846939047035575,1.3585804089315234
1647770406519984400,1.468984375,5.063626036593318,3.9997275160416956,1.4010644827872514
1647770406530035500,1.479035400390625,4.892286304113268,3.8540678760021922,1.5013777914077042
1647770406540086500,1.48908642578125,4.868852237033844,3.6343735701978206,1.6444135126844048
1647770406550137600,1.4991376953125,4.6978123642832035,3.443086443710327,1.5965268491327762
1647770406560188400,1.5091884765625,4.205648440298438,3.3222581703275442,1.2916554290413855
1647770406570239500,1.519239501953125,3.5576094794690607,3.087882428219914,1.1489890525337307
1647770406580289500,1.52928955078125,3.222957838141918,2.762491659452021,1.248546939677
1647770406590340600,1.539340576171875,3.344266003996134,2.404559388041496,1.3680533168062567
1647770406600391700,1.5493916015625,3.515062715640664,2.0674062852874395,1.261545099068433
1647770406610442800,1.55944287109375,3.4280443574011326,1.6671557981073855,0.8659924143157899
1647770406620493600,1.56949365234375,3.2440736914068458,1.249102819994092,1.2494452036909758
1647770406630544600,1.579544677734375,2.712850845709443,1.2153922735720872,2.1711701727531847
1647770406640595700,1.589595703125,1.583748031580448,1.2044129066571592,2.972375642120838
1647770406650646800,1.599646728515625,0.0065735331714153284,1.2458897031664848,3.625346506394446
1647770406660697600,1.609697509765625,-1.4354256020724772,1.2880132731467484,3.7703567426145073
1647770406670748400,1.61974853515625,-2.1947394105196,1.244412324090302,3.7190287064373493
1647770406680798500,1.629798583984375,-2.308279280459881,1.1568696497157216,3.6068683081567285
1647770406690849500,1.639849609375,-2.325126954886317,0.9291451821908354,3.459845270809531
1647770406700900600,1.649900634765625,-2.143555751249194,0.5899594045653939,3.1982921834409237
1647770406710951700,1.65995166015625,-1.6571318322211503,0.22570348309129476,2.9218931168571114
1647770406721002500,1.67000244140625,-1.3210942894935607,-0.08109218306094408,2.7294500983327628
1647770406731053600,1.680053466796875,-1.2357055782824753,-0.30686873138844967,2.6372829790279266
1647770406741104600,1.690104736328125,-1.428952606666088,-0.5909536762997508,2.573966983415186
1647770406751155700,1.70015576171875,-1.964233787843585,-1.040380282320082,2.4398110264256596
1647770406761206500,1.71020654296875,-2.5895225722044706,-1.3322884682029486,2.399171849784255
1647770406771256600,1.720256591796875,-2.973156563365459,-1.0535147814422845,2.3062970206014812
1647770406781307600,1.7303076171875,-2.6505945882827042,-0.9778732650026678,1.4687225992575288
1647770406791358500,1.7403583984375,-2.519880296179652,-1.5883260070204734,1.1105508200027048
1647770406801409500,1.750409423828125,-2.9884885725319386,-2.3410803108215332,1.2656962273985146
1647770406811460600,1.760460693359375,-3.8536230548441406,-2.5494655793651937,0.9414479066640138
1647770406821511400,1.770511474609375,-4.739524430853129,-2.5104917055875062,0.4340704853259027
1647770406831562500,1.7805625,-5.37632654287517,-2.126746363006532,-0.1559502940379083
1647770406841613600,1.790613525390625,-6.187350080293417,-2.2161033933266996,-0.1171806010628119
1647770406851664600,1.80066455078125,-7.543449047672748,-2.613537361781299,0.3250081991910934
1647770406861715500,1.810715576171875,-8.88944104705751,-2.1531056698828936,-0.6061217270761728
1647770406871765500,1.820765625,-8.748992711925506,-1.7248101146966217,-0.8849009667947888
1647770406881816600,1.830816650390625,-7.203118191665411,-2.1739351074218747,-0.34086065203510224
1647770406891867600,1.84086767578125,-5.657884891918301,-3.0004373690009114,0.667130833986029
1647770406901918700,1.850918701171875,-5.109208222594857,-2.9295138209939,0.9583804828949272
1647770406911969500,1.860969482421875,-5.435061055916547,-2.7883772113367913,1.1511276719976216
1647770406922020600,1.8710205078125,-5.769188381108641,-3.263352392372489,1.3899721570171415
1647770406932071700,1.88107177734375,-7.073014724937081,-2.329314323573559,-0.08191745490394532
1647770406942122500,1.89112255859375,-10.417409908270836,-2.2185136693388223,-3.2565362826168536
1647770406952173600,1.901173583984375,-13.65932028416395,-4.223384880258143,-5.605961227935552
1647770406962223600,1.9112236328125,-12.902930254209041,-7.2267568414062255,-2.732591903489828
1647770406972274400,1.9212744140625,-8.96952229951024,-10.414531722486018,-4.031426722641289
1647770406982325500,1.931325439453125,-5.104336232644319,-9.760222595345974,-5.489292412319779
1647770406992376600,1.94137646484375,-5.0231087327659125,-2.7370123502805828,-3.2025334742724896
1647770407002427600,1.951427734375,-16.37645392175913,1.6371009977139532,6.918165524008869
1647770407012478500,1.961478515625,-14.600690449416637,-0.02674998669438064,8.66159149184823
1647770407022529300,1.971529296875,-11.851001280653476,-1.4979700287908315,6.731874306112528
1647770407032580400,1.981580322265625,-9.154631029623747,-3.0358816073477266,4.513090879921615
1647770407042631400,1.99163134765625,-12.697461457633972,-3.6231720849648115,3.633580373993516
1647770407052682500,2.0016826171875,-9.152402832180261,-2.1079317724213005,0.26466888130158184
1647770407062732500,2.011732666015625,-1.7628326790988444,-2.7426471412971614,-2.199979941521585
1647770407072783400,2.021783447265625,1.5063029728502035,-4.518612565952539,-0.6778193281956016
1647770407082834400,2.03183447265625,4.011966527628898,-5.583589821651578,2.1987273111119867
1647770407092885500,2.041885498046875,4.945253339669108,-7.576520711669326,3.260764713966846
1647770407102936600,2.0519365234375,4.020746046411991,-8.0256445353508,6.140524031710624
1647770407112987400,2.0619873046875,2.253615377858281,-9.272746536916493,9.323119464325904
1647770407123038500,2.07203857421875,-0.5022001648306846,-6.915492505407333,6.684300069510936
1647770407133089500,2.082089599609375,-0.48139586173295973,-2.582195298056304,0.37095549217797813
1647770407143140600,2.092140625,0.7840197951585054,-1.4009253665775059,0.2753875514537096
1647770407153191700,2.102191650390625,-1.1643787101715803,-1.2551263180673122,0.642004064579308
1647770407163241500,2.112241455078125,-2.050060890471935,-0.9343629168391228,0.37138467737548053
1647770407173292300,2.122292236328125,-2.9096564433574676,0.4573153134435415,1.3418321032263338
1647770407183343400,2.13234326171875,-4.187139554661512,1.9496464595645664,3.407928621089458
1647770407193394400,2.14239453125,-2.8296996940672394,3.6034529467552896,2.8908123344168066
1647770407203445500,2.152445556640625,-1.1122644920527935,3.1044340423092245,1.2982726552240549
1647770407213496300,2.162496337890625,-0.6374094302654266,1.4030056799829005,0.9609422231417148
1647770407223547400,2.17254736328125,0.8147025181919336,0.9556035655274987,-0.6578949497375637
1647770407233598500,2.182598388671875,3.723133219146728,1.6846464466124773,-2.4737591809958217
1647770407243649500,2.1926494140625,5.080970554625988,3.4301831229954955,-2.394692074021697
1647770407253700600,2.20270068359375,4.959933022406697,4.333818308615684,-1.6529473861433566
1647770407263750700,2.212750732421875,4.3084512276470655,3.8461470198750494,-1.135074947341159
1647770407273801500,2.222801513671875,3.754197050452232,2.0579121884942055,-0.15076942080128938
1647770407283852500,2.2328525390625,3.742923376765847,0.09370002796053886,0.7874145521633327
1647770407293903400,2.2429033203125,2.886154571738839,-0.5782371103286743,1.319011491870135
1647770407303954400,2.252954345703125,1.1832277875483035,-0.5898726030647754,1.274227178248018
1647770407314005200,2.263005126953125,0.4394634304106235,-0.36610710229873655,0.8709098508432507
1647770407324056300,2.273056396484375,0.506483541238308,-0.0898679024517536,0.2587897236024961
1647770407334107400,2.283107421875,1.2982190253406762,-0.009411386945843696,-0.8703193376041948
1647770407344158500,2.293158447265625,1.8819658390015364,-0.050505029356479644,-1.2561385638497768
1647770407354208500,2.30320849609375,1.8912135598182678,-0.3104050888210535,-0.4117189162535593
1647770407364259600,2.313259521484375,1.4846797545850277,-1.2608423576265573,0.9200981715779751
1647770407374310400,2.323310302734375,0.944332522189617,-1.7149790410339831,0.42860275797192005
1647770407384361500,2.333361572265625,0.3428898928403854,-0.679815324318409,-0.3829549228556454
1647770407394412500,2.34341259765625,-0.47485915344059465,0.6664683514893055,-0.6704844552628696
1647770407404463600,2.353463623046875,0.3236246358782053,1.5834896729052066,-1.346763568279147
1647770407414514400,2.363514404296875,1.214965572592616,1.8364573027580975,-1.1173410646647215
1647770407424565500,2.3735654296875,2.0027274768888947,1.3994833510756493,0.31519053299929944
1647770407434616600,2.383616455078125,2.8703227963566778,1.5700696348398924,1.0446546717036516
1647770407444667600,2.393667724609375,3.2744641534954306,2.368075869774818,1.5097373312130569
1647770407454717400,2.403717529296875,3.6087352710723875,2.6758032638192177,1.9581971380278467
1647770407464768500,2.4137685546875,3.6932045293509956,2.653086989620328,2.5278692491069434
1647770407474819300,2.4238193359375,3.1455911053448915,2.301987486839294,2.161022580487281
1647770407484870400,2.433870361328125,2.5358073486298323,1.773859100025892,1.1401512276921422
1647770407494921500,2.44392138671875,2.1453040562212466,1.8045149350523948,0.6826786778602749
1647770407504972500,2.45397265625,2.52626210617125,1.4970798019528389,0.36549496174976226
1647770407515023400,2.4640234375,3.6752363264620302,0.9631664019972085,0.5159294149756432
1647770407525074400,2.474074462890625,5.417748102065921,0.5120347456246614,-0.7333212890565395
1647770407535125500,2.48412548828125,6.448453085806966,0.16239479400217532,-1.8630178312949834
1647770407545176600,2.494176513671875,6.730399557384848,0.4566062883913517,-0.021578283144906164
1647770407555226600,2.5042265625,5.338492194521427,1.0973743814349173,1.8171848854027688
1647770407565277700,2.514277587890625,3.0390602373838425,1.3447446296721697,2.2807091364890337
1647770407575328300,2.524328369140625,1.4005226309955119,0.421038131403923,1.5343806279517709
1647770407585379300,2.53437939453125,-0.6465659656673669,0.057367316341400146,1.595829076126963
1647770407595430400,2.544430419921875,-1.673611257857084,0.3741933781206608,2.451565907757729
1647770407605481500,2.5544814453125,-1.0948562611341477,1.55170337254405,2.8141289077088234
1647770407615532300,2.5645322265625,0.7209259178638457,2.2336744135916233,5.096678411367535
1647770407625583400,2.574583251953125,2.5912235309034584,1.9493050987809895,5.937236086305975
1647770407635634400,2.584634521484375,4.514286519446968,2.0334949555963275,5.509708008360862
1647770407645684500,2.5946845703125,6.006628186962008,1.9039730881482362,5.688125131881237
1647770407655735600,2.604735595703125,6.211130184331536,1.7713199369370936,5.133580447307229
1647770407665786600,2.61478662109375,4.690146944221854,1.7954671207219361,3.3149779501914978
1647770407675837400,2.62483740234375,3.0058120477765797,1.2232897488236427,0.5765981109499931
1647770407685888500,2.634888427734375,1.9764725071698426,0.4969458975642919,-2.3220880255818366
1647770407695939600,2.644939697265625,1.6167632892146706,0.02762275094091892,-4.193646744598448
1647770407705990700,2.65499072265625,1.6502341816619037,-0.16092822858095168,-4.913015203887224
1647770407716041500,2.66504150390625,1.7661808204829692,0.5695405936539173,-4.892597269758582
1647770407726092500,2.675092529296875,1.9737737696051596,0.6715098527878522,-3.3534289691388603
1647770407736143400,2.685143310546875,1.7842039684295654,1.312160456931591,-0.9156383426249026
1647770407746193400,2.695193359375,0.7188894436001777,2.387142389294505,0.6628115825474262
1647770407756244500,2.705244384765625,-1.109555233094096,3.2791718927949667,1.0962184893980622
1647770407766295600,2.715295654296875,-2.5520161406308413,3.4995167714625595,1.4026622733727097
1647770407776346400,2.725346435546875,-2.6545763513952494,3.3288556688964364,0.8009189075112343
1647770407786397400,2.7353974609375,-1.7700094388604164,3.456950718411803,1.4086132907316087
1647770407796448500,2.745448486328125,0.21570260581970213,4.199792700007557,1.2763625828415155
1647770407806499600,2.75549951171875,2.438881344360113,4.315843091464043,-2.0628277253255245
1647770407816550400,2.76555029296875,1.591991543790698,3.2548487679213283,-1.3893503718569873
1647770407826601500,2.7756015625,0.5922960308194161,4.125881076100469,-2.7838004049405454
1647770407836652500,2.785652587890625,-0.14240823702812194,4.572515421053767,-3.321913302412629
1647770407846702600,2.79570263671875,-0.5901929210603237,4.416906341668963,-2.6165967493519187
1647770407856753400,2.80575341796875,-0.5182622418373822,4.709202357825637,-2.47434078027606
1647770407866804500,2.815804443359375,-0.023176292926073074,4.9186686996042726,-2.202804059031606
1647770407876855300,2.825855224609375,0.3847054197847843,4.760361467176676,-1.7012930455088615
1647770407886906400,2.83590625,0.4258271192461252,4.047122596684098,-1.3866668318614364
1647770407896957400,2.84595751953125,0.9414853160649538,4.38477868052423,-0.2441869420260191
1647770407907008500,2.856008544921875,1.551142231529951,4.81208873180449,0.397457057069242
1647770407917059300,2.866059326171875,0.8760662106931209,3.5352900956332682,0.29541093330681323
1647770407927110400,2.8761103515625,-0.7970879510462283,1.4394500352829693,-0.6263707343786955
1647770407937161500,2.886161376953125,-3.112766109585762,-0.7348001294374465,-1.9701739915475247
1647770407947211500,2.89621142578125,-5.787047278404236,-2.961752249036729,-3.2460905841872094
1647770407957262600,2.9062626953125,-7.710636336648464,-4.506477891522645,-4.1161251135006545
1647770407967313400,2.9163134765625,-9.193238115915655,-5.0455631411582225,-3.566902792993188
1647770407977364500,2.926364501953125,-11.99145020030737,-4.637314056439697,-1.8269807416215538
1647770407987415600,2.93641552734375,-14.950544336050747,-4.644402261134982,0.06809343914762139
1647770407997466600,2.946466552734375,-12.504135518795252,-5.607158328765631,0.22824600718095897
1647770408007517700,2.956517578125,-12.492151651012897,-4.09721320002079,1.1598588946595787
1647770408017568500,2.966568603515625,-12.41241585099697,-3.752828100186586,1.7407297144927083
1647770408027619600,2.97661962890625,-11.787774716889858,-4.337478000167012,1.985513307237625
1647770408037670700,2.986670654296875,-10.54125840625763,-4.2733866362676025,1.7293899898327887
1647770408047720700,2.996720703125,-8.629557938727736,-3.9682296772331,2.1151149619236587
1647770408057771800,3.006771728515625,-8.487671095225215,-3.335995603778958,3.0436034337714313
1647770408067822600,3.016822509765625,-4.700724452337623,-2.7340719129145143,2.3610652603603897
1647770408077873400,3.026873291015625,-2.2126105827748774,-1.9137658756271003,1.563986515533924
1647770408087924500,3.036924560546875,-0.2781915029585361,-1.7199226349160075,0.35531375947520133
1647770408097975600,3.0469755859375,0.13814239627718924,-1.342287884169817,-0.41777839895561336
1647770408108026600,3.057026611328125,0.4716179795622825,-0.008659399534761905,-0.09248100755959748
1647770408118077400,3.067077392578125,1.2378086880415677,1.2624851563975215,-0.1717871839866042
1647770408128128500,3.07712841796875,0.3186819187790155,1.8190479027956723,-0.5071057647898793
1647770408138178600,3.087178466796875,-0.7030506539553404,2.589181795942783,-0.6780804633498192
1647770408148229600,3.097229736328125,-1.0981108790159224,3.3172570010393856,-0.14295914890915154
1647770408158280700,3.10728076171875,-0.7108049213439226,3.530906181460619,-0.2586271169193089
1647770408168331500,3.11733154296875,0.4951350487500429,3.775886904212832,-1.2282492709271609
1647770408178382600,3.127382568359375,2.5295406894505024,3.58114700692296,-2.1902185720942913
1647770408188433700,3.13743359375,4.5274534595340485,3.1589836708813905,-2.8217902361169456
1647770408198484700,3.147484619140625,5.916075809377432,3.465414595374465,-3.376095558977127
1647770408208535600,3.15753564453125,8.22277220456004,2.354208087942004,-2.230460566111654
1647770408218586600,3.167586669921875,9.273526873639225,1.6757827566772698,-1.5322560370132325
1647770408228637700,3.1776376953125,8.85420723659098,2.148269920289516,-2.379747310607135
1647770408238687500,3.1876875,7.758577652996778,2.4555571693509815,-2.6744121017217632
1647770408248738600,3.197738525390625,6.600718699982762,2.616627436751127,-2.3556663239263
1647770408258789600,3.20778955078125,5.711311946201324,2.869728922116756,-2.3840054064430296
1647770408268840400,3.21784033203125,5.099126973563433,3.1445413040310144,-2.710844474323094
1647770408278891500,3.2278916015625,5.155497095561027,2.894181226328015,-3.0198800283566114
1647770408288942600,3.237942626953125,5.714932474786043,2.5023908167183397,-3.2387092417642473
1647770408298993700,3.24799365234375,6.413679294067621,2.5917753195673225,-3.3353257416933775
1647770408309044500,3.25804443359375,7.465106163319945,2.8340041132628917,-3.2123397057548164
1647770408319095600,3.268095458984375,8.467864570993184,2.961897502726316,-2.35236494429335
1647770408329146600,3.278146728515625,7.918916098991036,3.3092811998546123,-0.8889200662430375
1647770408339196700,3.28819677734375,6.326205593276024,3.6370664625436064,0.16021534933755174
1647770408349247700,3.298247802734375,4.257050710755586,3.9645042269691824,0.0053218343435786665
1647770408359298600,3.308298583984375,2.3889397941052914,3.8783044916361566,-0.026569844354502856
1647770408369349400,3.318349365234375,1.0516887350589037,4.064950806580484,0.6602438509512693
1647770408379400400,3.328400390625,-0.17057868497967718,4.705470477820932,1.2657251612320541
1647770408389451500,3.338451416015625,-1.257564358869195,4.668029804959893,1.2823434108167886
1647770408399502600,3.348502685546875,-2.6193705979794264,3.866396027177572,-0.6739901983615011
1647770408409553400,3.358553466796875,-3.637826341000199,3.146680946408212,-0.4817039413014427
1647770408419604500,3.3686044921875,-4.130785799276828,1.6655132915973663,2.15441733700335
1647770408429655600,3.378655517578125,-5.288620202371478,1.196456979216635,4.393754306401312
1647770408439705600,3.38870556640625,-7.227922378054261,2.3031094766065476,6.044476563841104
1647770408449756700,3.398756591796875,-9.055896514627337,2.714178294920921,7.724272063291072
1647770408459807700,3.408807861328125,-9.919156435239314,2.0493246851518747,7.895628746905922
1647770408469858600,3.418858642578125,-7.602282929435372,-0.17523162535205483,4.886433778692782
1647770408479909600,3.42890966796875,-5.370584784352779,-3.3040935680836436,2.4464960571475327
1647770408489960700,3.438960693359375,-6.057302143144607,-3.9203517815098166,2.094839943397045
1647770408500011800,3.44901171875,-7.474113645640015,-3.538526008814573,2.0626180280975994
1647770408510062600,3.4590625,-8.410278643465041,-3.451922368855774,2.0261760108850897
1647770408520113400,3.469113525390625,-8.962653582784533,-3.3490687281027434,2.103404358124733
1647770408530164500,3.47916455078125,-9.60330535597205,-2.7892326591223475,1.565422393555939
1647770408540214500,3.489214599609375,-9.581000585183501,-2.510594581440091,1.058988682808727
1647770408550265600,3.499265625,-8.47833628064692,-1.949684745748341,0.7087380519419908
1647770408560316700,3.509316650390625,-6.425794094753265,-1.0215888534147293,0.559406774185039
1647770408570367500,3.519367431640625,-4.890666593956947,-0.3949026964113116,0.6445502419307828
1647770408580418600,3.52941845703125,-4.175675326839089,-0.22883666655048726,-0.32443726743534207
1647770408590469600,3.5394697265625,-2.978035567578673,-0.33386677455976604,-1.4819449227936565
1647770408600520700,3.549520751953125,-2.137591289886832,1.0340995946153997,0.09067947456296532
1647770408610571500,3.559571533203125,-0.5281295558571815,1.0010817066326736,-0.36416086360178884
1647770408620622600,3.56962255859375,-0.03331599414646625,1.0510777635537087,-0.16342607327867298
1647770408630673700,3.579673583984375,-0.5333230328470469,1.2771028798148034,-0.3543198530670255
1647770408640723500,3.589723388671875,-0.7803115882903338,2.266570282629877,-0.10161116641126572
1647770408650774500,3.5997744140625,-0.1533031405299902,2.299352462160587,-0.025818788525182754
1647770408660825600,3.60982568359375,0.19725158784985541,1.7844418688386678,0.10821584363961592
1647770408670876400,3.61987646484375,0.20627368321716785,1.9141183423265813,0.2853674955351278
1647770408680927500,3.629927490234375,0.6227560510128736,2.2309973033368586,0.3111982850253582
1647770408690978600,3.639978515625,2.1429723984032867,1.6537328374326228,-0.19287814027229322
1647770408701029600,3.650029541015625,3.3613141694307327,1.440640706372261,-0.8843023433145135
1647770408711080400,3.66008056640625,3.2929157559871673,1.991824390080571,-1.3160213701434433
1647770408721131500,3.670131591796875,3.512093928962946,2.2338524005070326,-1.5156991622269154
1647770408731182600,3.6801826171875,3.795870538577437,2.24951437228024,-1.2648583152696489
1647770408741232600,3.690232666015625,3.6116152104228734,2.412905483843386,-1.0197899142339826
1647770408751283700,3.70028369140625,3.155804456323385,2.4290549468725917,-0.9609884003710001
1647770408761334800,3.710334716796875,2.730934199410677,1.8295923854246734,-0.9824087164752184
1647770408771385600,3.720385498046875,1.9163994390010832,1.2425383469119666,-1.1242135807827114
1647770408781436700,3.730436767578125,1.5824322728067635,0.7223048050016164,-0.9646191580887883
1647770408791487700,3.74048779296875,1.902798199149966,0.4761348724648356,-0.4503077362364158
1647770408801538600,3.75053857421875,2.600329797422886,0.4853358315303921,-0.012453037930373102
1647770408811589400,3.76058935546875,3.1074224104702473,0.47612668915838,0.14425563672678543
1647770408821640400,3.770640380859375,3.057065265151858,0.2137424116626382,-0.018716938897036014
1647770408831691500,3.78069140625,2.8792326635211705,-0.12914835796058177,-0.29335591873945666
1647770408841741600,3.790741455078125,2.6615198869228363,-0.3616100831404328,-0.48426991933193053
1647770408851792600,3.800792724609375,2.4098586634933947,-0.5201417719736695,-0.5442527884665876
1647770408861843700,3.81084375,2.1273621568173167,-0.6271122003957629,-0.6692875736285001
1647770408871894500,3.82089453125,1.614849272286892,-0.6328448988288641,-0.7687625317286699
1647770408881945600,3.830945556640625,0.9833663094609976,-0.638562984214723,-0.716169663247466
1647770408891996700,3.84099658203125,0.5678472337394952,-0.675244070880115,-0.6442725940331816
1647770408902047700,3.8510478515625,0.6532242545127869,-0.598006809681654,-0.6329645066205412
1647770408912098600,3.8610986328125,0.9852782805621624,-0.37470746512264014,-0.5901258471734822
1647770408922149600,3.871149658203125,1.152985794019699,-0.20455635790526866,-0.5436497810721397
1647770408932200700,3.88120068359375,1.1353642126113175,-0.22111820112764835,-0.5763241893794387
1647770408942250500,3.89125048828125,1.0840846917510032,-0.30322774453759194,-0.5758666914029047
1647770408952301600,3.901301513671875,0.8678367270082235,-0.45676673965007064,-0.5113157837003469
1647770408962352600,3.9113525390625,0.5810094976514577,-0.6563505698397756,-0.4581194329006597
1647770408972403500,3.921403564453125,0.07096621810495853,-0.6945917454287409,-0.4524885508742183
1647770408982454500,3.93145458984375,-0.8428156829982996,-0.6743757636129856,-0.5861259273497388
1647770408992505600,3.941505615234375,-2.0437784492015836,-0.4463423762694001,-0.4984558637358248
1647770409002556700,3.951556640625,-2.9399224022835493,-0.3379115199059248,-0.24468963085114953
1647770409012607500,3.961607421875,-3.9321407112419604,-0.6208531400009989,0.09022517319051548
1647770409022658600,3.971658447265625,-4.4972108814835545,-0.8264972931429744,0.49175000942163166
1647770409032709600,3.981709716796875,-5.0320519176781175,-0.5109697467416524,0.7445747967377304
1647770409042759700,3.991759765625,-5.310756046333909,-0.30302053152769803,0.6691816290359943
1647770409052810800,4.001810791015625,-4.575598774021864,-0.32047961585074664,0.4170946544751525
1647770409062861600,4.011861572265625,-3.519922430631518,-0.30936054820418357,0.46391149683818217
1647770409072912600,4.02191259765625,-2.2968805190891026,-0.12157032392174005,0.325498101599887
1647770409082963500,4.03196337890625,-1.1795002914577721,-0.10095715948194264,0.010137043472426012
1647770409093014500,4.0420146484375,-0.5557943923741578,0.13819646455198525,-0.2766309573772363
1647770409103065600,4.052065673828125,-0.37549335480332374,0.24567075084298848,-0.25137347426293416
1647770409113116400,4.062116455078125,-0.5693377645581961,0.23932225859910247,-0.2246844422418624
1647770409123167500,4.07216748046875,-0.9553419919818639,0.3186263891994953,-0.06143643807698972
1647770409133218600,4.082218505859375,-0.956774070611596,0.17805647351443765,0.135070121825533
1647770409143268600,4.0922685546875,-0.7203525018900633,0.30490532236099244,0.40238106946796176
1647770409153319700,4.102319580078125,-0.7818231618970632,0.5308318005532026,0.3234952373448759
1647770409163370500,4.11237060546875,-0.5048690917789935,0.5885287872403859,0.5275693281585351
1647770409173421600,4.122421630859375,0.2598679107606411,0.8660375686317682,0.39238552595861254
1647770409183472600,4.13247265625,0.3789198221206665,0.8180255251348019,0.5196534039348364
1647770409193523700,4.142523681640625,0.5014718505561352,0.23200492132306097,1.2416001892790198
1647770409203574800,4.15257470703125,1.4721253934383391,0.22661562950015066,1.3630389957755804
1647770409213625600,4.16262548828125,1.353945588737726,0.6396984179854392,0.5568325032502413
1647770409223676700,4.1726767578125,2.0037118117511272,-0.004012158250808716,-0.9612092035148292
1647770409233727700,4.182727783203125,2.083742795321345,-1.5920850672930478,-2.2263049077369272
1647770409243777500,4.192777587890625,2.032285579806566,-2.488320790311694,-2.0253189556643365
1647770409253828600,4.20282861328125,2.016428085461259,-1.5681383745163677,-1.3899552058823406
1647770409263879400,4.21287939453125,1.9746639964431523,-0.6058446637004613,-1.2618773997627197
1647770409273930500,4.222930419921875,2.091450885480642,-0.06457096410989761,-1.5882514804795385
1647770409283981600,4.232981689453125,1.7563421480357646,0.563780130431056,-2.222374436420202
1647770409294032600,4.24303271484375,-0.03884674026668072,1.385503341040015,-3.037347003725171
1647770409304083700,4.253083740234375,-0.4259668199777603,1.4156278456687927,-1.8170824479416012
1647770409314134500,4.263134521484375,-0.15074702630639075,0.9543120644122361,-0.6442893990375101
1647770409324185600,4.273185546875,0.19633856465816496,-0.034682021802663804,-0.0838163473278284
1647770409334236700,4.283236572265625,0.33299276820421214,0.005136193844676017,-0.7978959064282476
1647770409344286700,4.29328662109375,1.0447042829990387,1.014686161354184,-1.81996618668437
1647770409354337800,4.303337890625,1.8483014698088167,1.6194266632050276,-1.3422992823466657
1647770409364388400,4.313388427734375,1.126582940262556,0.8378606909394264,1.252400838626176
1647770409374439400,4.323439453125,0.3881523453682661,0.9025029667198657,2.1396812479034066
1647770409384490500,4.333490478515625,-0.047259763824939724,1.5577438217520714,2.687444017252326
1647770409394541600,4.34354150390625,-0.5528302818715572,1.500921279811859,4.10353421973586
1647770409404592600,4.353592529296875,-0.39499417408704757,-0.22333704622089862,5.907969659811258
1647770409414643500,4.3636435546875,0.29286884760856624,-0.24769991858303544,5.726245895960926
1647770409424694500,4.373694580078125,0.9731471132636069,0.7758084316521883,4.141155217599868
1647770409434745600,4.38374560546875,1.423269884854555,0.9445493798106909,1.1703483591657131
1647770409444795600,4.393795654296875,1.132718666538596,0.4489660027712583,-1.6475028570018708
1647770409454846700,4.4038466796875,0.14493921681046484,-0.2917576714962721,-3.208856539814174
1647770409464897500,4.4138974609375,-0.25289339557290075,-1.1114268721848726,-3.172205263765156
1647770409474948600,4.423948486328125,-0.6764391258835792,-1.3367489547431468,-2.0883163868471977
1647770409484999700,4.433999755859375,-1.1638660844743252,-0.7931570413380861,-2.0108803882062434
1647770409495050800,4.44405078125,-1.2192641465693712,-0.3512549856036901,-2.418516893984377
1647770409505101600,4.4541015625,-1.7544196555405853,0.15023206252157686,-1.6488411198683082
1647770409515152600,4.464152587890625,-2.20997555809617,0.7565238854676485,0.08828706300109625
1647770409525203500,4.474203369140625,-1.6672551668286322,1.0853747315615414,1.2456415736243127
1647770409535254500,4.484254638671875,-1.2724872027128935,1.1250433096051216,1.3059100182346999
1647770409545304600,4.4943046875,-0.6853951702773571,1.0433528683900832,0.6069538670513779
1647770409555355600,4.504355712890625,-0.048370355415344235,0.5257464601129294,0.358901335638389
1647770409565406500,4.514406494140625,0.17965747897028922,0.06692191115021705,-0.08332001517824827
1647770409575457500,4.52445751953125,1.0225567485988138,0.7383090143412351,-0.4982175249353051
1647770409585508600,4.534508544921875,1.9666180526316164,0.9199573748677968,-0.8977459814511239
1647770409595559700,4.5445595703125,2.536704589730501,0.946645475307107,-1.2313929757803679
1647770409605610500,4.554610595703125,2.9487095198512074,1.6034136860370636,-0.4119244122304022
1647770409615661600,4.56466162109375,2.348006895214319,3.042373307454586,2.396657821136713
1647770409625712600,4.574712646484375,0.7282067225217819,3.015264935776591,5.249772877582908
1647770409635763700,4.584763671875,-0.6945540437668561,1.9160563246518372,6.84321111305058
1647770409645813500,4.5948134765625,-1.9533798008739947,0.8811234940826892,7.31350924218595
1647770409655864600,4.604864501953125,-2.935618567609787,0.5520931997686624,5.829907345965505
1647770409665915400,4.614915283203125,-3.4076574029326436,1.359300393769145,3.3150188667237757
1647770409675966500,4.624966552734375,-2.64765502769947,2.2907447928130624,2.960014173197746
1647770409686017500,4.635017578125,-1.8275263928055763,2.780426836854219,2.953471911947429
1647770409696068600,4.645068603515625,-1.4751906262278556,2.9266221912056207,3.7100147943764923
1647770409706119400,4.655119384765625,-0.7656547019064426,3.064991381976008,4.304764648088812
1647770409716170500,4.66517041015625,0.8911106350898742,2.5251532681465148,3.8790807367056606
1647770409726221600,4.6752216796875,4.250057490867376,-0.19695523525178432,-0.5695932006239891
1647770409736272600,4.685272705078125,5.173960388490557,-0.3425111226558685,-1.2656506346911192
1647770409746323700,4.69532373046875,1.7261445781707763,-0.061381228157877915,-4.533533363969624
1647770409756373800,4.705373779296875,3.6897944286465645,-0.5744482394397259,-5.344692802727222
1647770409766424600,4.715424560546875,4.4220062951564785,-0.11972937223017215,-2.4119877844765782
1647770409776475600,4.7254755859375,3.04180632122159,-0.3116758394092321,-1.6118787320435046
1647770409786526700,4.735526611328125,2.7975013057738543,-1.1989046646296977,-1.0396183580368756
1647770409796577800,4.745577880859375,3.8477901109069585,-2.0353151567608117,-1.3452557940647005
1647770409806628400,4.75562841796875,4.603541842958331,-1.9223329207032918,-4.7507256238251925
1647770409816679400,4.765679443359375,3.2995962566643953,-1.7685539793550966,-7.7162220278263085
1647770409826730500,4.77573046875,1.4654010536193847,-0.49885260796844955,-3.020699820306897
1647770409836781600,4.785781494140625,0.2542892338454723,0.5142863239437342,-0.9107605074554681
1647770409846832600,4.79583251953125,-0.7094955923110247,0.8224684760183095,-1.7479092507332563
1647770409856882700,4.805882568359375,-0.274098096165061,0.11653963627815246,-1.5746020175725222
1647770409866933500,4.81593359375,0.15676000298559664,-0.24646248574256896,-1.7192074723839759
1647770409876984600,4.825984619140625,-0.4095791642785072,-0.16528116309344767,-2.154762789440155
1647770409887035600,4.83603564453125,-1.4898036734700202,-0.4853478142291307,-1.8359221729680895
1647770409897086700,4.846086669921875,-2.293457558903098,-0.8576683842152356,-1.8430425263673067
1647770409907137500,4.856137451171875,-2.074742327263951,-1.2181786894202231,-2.2723327916793523
1647770409917188600,4.866188720703125,-1.247124213397503,-1.5887795960068702,-2.41583539981544
1647770409927239700,4.87623974609375,-0.672032415357232,-1.430260182133317,-2.6071669499665497
1647770409937290800,4.886290771484375,-0.7921925802201032,-1.0613719246834517,-2.883316717964411
1647770409947341300,4.89634130859375,-0.9470791905492544,-0.6671507807955146,-2.528025024190545
1647770409957391000,4.90639111328125,-1.0980699624836445,-0.9710697224676609,-2.4615286449760196
1647770409967442000,4.91644189453125,-1.1477853027671574,-1.0097224014669657,-2.033273275669664
1647770409977493000,4.926492919921875,-1.7619488820016382,-0.4485147518724203,-1.665528050775081
1647770409987544000,4.9365439453125,-2.3571745365321637,0.12923603624403476,-1.0771958820853382
1647770409997595100,4.94659521484375,-2.7642063544154167,0.7213365444913507,-0.4828863194864243
1647770410007646200,4.956646240234375,-2.7975808007508514,1.0600625956505536,-0.4353672471381724
1647770410017697000,4.966697021484375,-2.451205988404155,0.8588181387722492,-0.3927019714966416
1647770410027748000,4.976748046875,-2.0654957754909993,0.6349085533604025,0.3292947174038738
1647770410037799200,4.986799072265625,-1.9058721997678278,0.7090089778378605,1.6416259277924894
1647770410047850200,4.996850341796875,-0.6280921513438225,1.1504890087679027,2.4285633639633653
1647770410057900300,5.006900390625,1.790581102246046,1.7741396705329417,1.9392464999727903
1647770410067951000,5.016951171875,3.1868408151000738,1.6931635150671005,1.8656468646243214
1647770410078002200,5.027002197265625,3.412081064593792,1.1480126817822456,1.8600763710156083
1647770410088053200,5.03705322265625,3.19897022883296,0.4057932159990072,0.8634671336218714
1647770410098104300,5.047104248046875,2.4754794289171693,-0.05254617979526519,0.010865969668328762
1647770410108155100,5.057155029296875,1.8186141875535249,0.04187690174281597,0.1275331778489053
1647770410118206000,5.0672060546875,1.2746265528291463,0.4181991085857153,0.47440424927994607
1647770410128257000,5.077257080078125,-0.3885381298154592,0.8472259006559848,1.6129824555017054
1647770410138308000,5.08730810546875,-2.0709031874924895,1.761313506707549,1.8860770737126469
1647770410148359200,5.097359130859375,-1.405287653440237,1.8828648336678742,1.9424575709737837
1647770410158409200,5.1074091796875,-0.029814708027243612,1.4214946918755769,2.338607929358631
1647770410168460000,5.1174599609375,2.3431483492672442,0.7784715133816004,1.757540710170567
1647770410178511000,5.127510986328125,4.022964306983352,-0.18793547797203064,1.2315252238579093
1647770410188562200,5.137562255859375,4.354087189662456,-0.6387070688605309,1.085308023000881
1647770410198613200,5.14761328125,3.743734108626842,0.10076748212873936,1.3178218436941505
1647770410208664000,5.1576640625,2.7953853365331884,0.8778589393287897,1.0403365162435918
1647770410218715100,5.167715087890625,1.055326799300313,0.8995049539476633,0.5757987772658467
1647770410228766200,5.17776611328125,-1.1061825417906046,-0.4282148911654949,1.0370213272809983
1647770410238817300,5.1878173828125,-4.593048505994677,-0.7244254504173994,0.7834096273709088
1647770410248868400,5.197868408203125,-7.1388242909312245,0.20410744509398937,-1.7911435584343969
1647770410258919200,5.207919189453125,-5.5963996188640595,-1.1094792452484368,-2.625754746058583
1647770410268969000,5.217968994140625,-2.538092244696617,-0.5520575439333916,-1.9746043752104043
1647770410279020000,5.22802001953125,1.3043559206604958,-0.8358119417160749,-0.6690471890013665
1647770410289071000,5.238071044921875,2.4566297670185566,-1.0349240627408027,-0.4521617666052654
1647770410299122200,5.2481220703125,2.9865298396795987,-0.36074002230763436,-0.9526632742919027
1647770410309173000,5.258173095703125,2.95418824352324,-0.2624830616950989,-1.8702480748094616
1647770410319224000,5.26822412109375,2.148781961464882,-0.37019583291709424,-1.231545535993576
1647770410329275100,5.278275146484375,1.3219699032843113,-0.34769524729549883,-0.34811171914190053
1647770410339326200,5.288326171875,1.004982513463497,-0.1516243936628103,0.041308235009387136
1647770410349377300,5.298377197265625,0.8271744617521762,0.1233873102158308,-0.17383016105629504
1647770410359428000,5.308427978515625,0.8433715633153915,0.4747095158368349,-0.37350196179039774
1647770410369478100,5.31847802734375,0.38152678974866866,0.510095886516571,-0.060961906767264006
1647770410379529200,5.328529296875,-0.7620411875844001,0.012653145346045494,0.5509288321644067
1647770410389580000,5.338580078125,-1.5821312440335749,-0.11381547201126813,0.9105817898876964
1647770410399631000,5.348631103515625,-1.7039193023592232,0.2852230090305209,0.8046132319845258
1647770410409682000,5.358681884765625,-0.9144991094619035,0.5862114502087236,-0.04785056932494044
1647770410419733000,5.36873291015625,-0.268316590154171,0.6166323074355721,-0.6388291608702391
1647770410429784000,5.3787841796875,0.20805881306827068,1.3363973648265004,-4.424330354189872
1647770410439835100,5.388835205078125,2.6797610615342853,-0.9078563104465603,-0.29021044205427166
1647770410449886200,5.39888623046875,0.005842296287417411,-0.5614525642663241,8.594615804684162
1647770410459937000,5.40893701171875,-0.9410463401257991,0.3784703247874975,3.8068645185396073
1647770410469988000,5.418988037109375,-0.30327801342010496,0.24599720631837843,0.26870522414557635
1647770410480038100,5.4290380859375,-0.40063364127874374,-1.0297989748120306,0.11874525656364858
1647770410490089200,5.439089111328125,-0.756862323641777,-0.6642249564766883,-1.4359770984753966
1647770410500140300,5.449140380859375,-2.520695119693875,-0.2741881125360727,-0.94766546600461
1647770410510191000,5.459191162109375,-3.2385043668419122,0.23366905514299868,-0.8501717448495328
1647770410520242200,5.4692421875,-2.4200030408889055,0.4375502902656793,-1.1337269667983054
1647770410530293200,5.479293212890625,-1.2470330279827118,0.35716625547409053,-0.9882238324947654
1647770410540344300,5.48934423828125,-0.0890799669444561,0.3551636834800243,-0.5067098242748529
1647770410550395100,5.49939501953125,0.9620926352858543,0.4343535400509834,-0.17352445610798894
1647770410560446000,5.509446044921875,1.4195634315520524,0.3469166641384363,0.019420155262947082
1647770410570497000,5.5194970703125,1.6498469359099863,-0.03259118700325489,-0.14494513509459792
1647770410580547000,5.529547119140625,0.00315232655107975,0.2922796495437622,-1.712188095141202
1647770410590598100,5.53959814453125,-1.1142653104811906,0.07823240971565246,0.28471717840023336
1647770410600649200,5.549649169921875,-1.4635942964583635,0.01726443853378296,0.7451804344806819
1647770410610700000,5.559699951171875,-2.273136655408144,1.0565624785751104,-2.986926437781751
1647770410620751000,5.569751220703125,-2.26861187146008,2.3547774122625587,-3.03177241846323
1647770410630802200,5.57980224609375,-1.2750368871957063,0.10727379528284073,5.4174885743468995
1647770410640853200,5.589853271484375,1.0623089132726191,-0.43717502721250057,1.4458796299390495
1647770410650904000,5.599904052734375,2.595253224810958,-0.06983107659518718,0.2096159063171595
1647770410660955100,5.609955078125,3.3708383691012855,0.11976385902166366,-0.022409948196075856
1647770410671006200,5.620006103515625,3.597238894546032,0.7312398066073655,0.15080573422368615
1647770410681056000,5.630055908203125,3.2038796281844375,0.7614718632638454,0.8526343355707824
1647770410691107000,5.640107177734375,2.5350866331398487,0.029824060377478596,1.05984997581318
1647770410701158100,5.650158203125,1.1679343568265437,-0.829476308953762,0.3271738527923822
1647770410711209000,5.660208984375,-0.19477672216892242,-0.36059681444466113,-0.6976616543933749
1647770410721260000,5.670260009765625,-1.0318933167427777,0.4817354689508676,-0.6837037831243127
1647770410731311000,5.68031103515625,-1.844019262444973,0.6984416988551616,-0.026342867198213934
1647770410741362200,5.690362060546875,-5.710155761903524,0.2433890696465969,1.2864350640445947
1647770410751413000,5.7004130859375,-4.196758446878195,-0.6109411100566386,-0.19509210826102644
1647770410761464000,5.710464111328125,-2.3119050697416066,-0.4688122744917869,-0.04907455816194415
1647770410771515100,5.72051513671875,-0.7220552141547203,-0.2613409059226513,0.578195097817853
1647770410781566200,5.730566162109375,0.5554074388831853,-0.2958019784510135,1.009458782094717
1647770410791616300,5.7406162109375,0.6290922682970762,-0.0484153636008501,1.3859806031629442
1647770410801667300,5.750667236328125,0.4671452180624008,0.08155132500529289,1.3634009609557687
1647770410811718100,5.76071826171875,0.8032838830769061,-0.3081517569363117,0.906744403681904
1647770410821769200,5.770769287109375,0.6603010610312223,-0.42981706566512584,0.518254862248525
1647770410831820000,5.780820068359375,0.19257132107913494,0.604457593256235,0.9662406948760152
1647770410841871000,5.79087109375,-0.034410803645849225,0.6290753171622753,0.6316297508854418
1647770410851922000,5.800921875,-0.11731237421631813,-0.19704408257901668,-0.18967742626853287
1647770410861973000,5.810972900390625,-0.23202479506731033,-0.28038638265430926,-0.8579612296819686
1647770410872024000,5.821024169921875,-1.0771879179745911,0.006221066471934318,0.6174001500029116
1647770410882075100,5.8310751953125,-1.6411784762859343,0.8582949916809797,1.704688971557468
1647770410892126200,5.841126220703125,-1.6581588371813296,1.2539882539480924,1.7693939373105763
1647770410902176300,5.85117626953125,-2.6259225038409233,2.1879624637305737,3.4412653657630083
1647770410912227000,5.86122705078125,-3.1385353416144848,3.445530914252996,1.7927862110748887
1647770410922278100,5.871278076171875,-2.142547450989485,2.8983465293139217,1.5324375310599803
1647770410932329200,5.8813291015625,-1.4157418274372815,1.7496335903078317,0.8187237365320325
1647770410942380300,5.89138037109375,-0.29505671304166314,1.2065455347716807,1.0674472990743815
1647770410952432000,5.90143212890625,0.7934265059292316,1.6411030729621647,1.2037557579226792
1647770410962483200,5.911483154296875,6.282655789884925,-2.3973440498352048,-8.48010796649456
1647770410972534300,5.9215341796875,9.610212651142477,-4.906016723302006,-10.137049829101562
1647770410982585000,5.931585205078125,4.484624956154823,-2.605952313479781,-2.7551465573862193
1647770410992636200,5.94163623046875,2.205149745374918,-0.3054547729372978,-0.039105098941922184
1647770411002686200,5.951686279296875,1.5927970149546862,0.08225041318535804,0.8257461825147271
1647770411012737300,5.9617373046875,-0.5832809497147798,-0.5556996998280287,0.04833996027708053
1647770411022788400,5.971788330078125,-2.1384429382801056,-1.1604805336892605,-1.7747540030390023
1647770411032839400,5.98183935546875,-3.097463326513767,-1.2982821537047624,-1.855174424318224
1647770411042890200,5.99189013671875,-2.126439196753502,0.11361644230782986,-0.6175545368470251
1647770411052941300,6.00194140625,-1.5286515827804803,1.4752975937336683,0.46308293705955145
1647770411062992100,6.0119921875,-0.7221686114013195,1.094866782528162,0.5698425357425585
1647770411073043200,6.022043212890625,-0.6111714116811752,-0.49421384225189685,1.9668413399934768
1647770411083094000,6.032093994140625,-0.44575522403120993,-1.1233353366434573,0.9835957343026995
1647770411093145000,6.04214501953125,0.3104828302323818,-0.7355243520587682,-0.3242262915657833
1647770411103195100,6.052195068359375,1.0282605131983757,0.7380898186326027,-1.0947513394549488
1647770411113246200,6.06224609375,0.9779816938132047,1.4262299037039279,-0.7116472904521971
1647770411123297300,6.07229736328125,1.0591291141927242,1.1617308260113,-0.5710176804691552
1647770411133348400,6.082348388671875,1.5237603036075829,0.8834124818027019,-0.2646677487904206
1647770411143399200,6.092399169921875,1.982828013676405,0.7596499085336923,0.5542092786071822
1647770411153450200,6.1024501953125,2.237693586105108,0.3769271869987249,0.8870127713169902
1647770411163501300,6.112501220703125,0.5807686746329069,0.027480127599835393,1.0013533631809055
1647770411173552400,6.122552490234375,-1.6747171732723711,-0.175679807510972,1.445104553913325
1647770411183603200,6.132603271484375,-2.9371856707960364,1.3245371234238148,3.7720372430473565
1647770411193654300,6.142654296875,-2.8851982939273118,2.9042426016151905,5.460231737530231
1647770411203704000,6.1527041015625,-1.7709487655371428,2.607783620560169,5.789454339545965
1647770411213755100,6.162755126953125,-0.34528000284731386,1.3019658106535672,5.405704028528929
1647770411223806200,6.17280615234375,1.223149463570118,0.8335381515651941,4.886586046645045
1647770411233857300,6.182857177734375,4.305884592029452,-0.6820522895902394,0.06059855334758758
1647770411243908000,6.192908203125,10.368735601472855,-5.225327003112435,-10.208485418283939
1647770411253959200,6.202959228515625,7.106004555869102,-2.3347645518034694,-6.684906803232431
1647770411264010200,6.21301025390625,1.7752046694159507,2.3095851023614404,2.0437651513285933
1647770411274061300,6.223061279296875,-1.0343465551137923,2.341532146242261,1.1285315901122988
1647770411284112100,6.233112060546875,-4.267072338554263,0.49343409005105493,0.02406125906705856
1647770411294163200,6.2431630859375,-2.2800533029288053,-0.19134616319835185,2.290866665627062
1647770411304214300,6.25321435546875,0.5544739574253559,0.020325579670071602,-0.9012126346483826
1647770411314264300,6.263264404296875,1.3984230283677577,1.7090636795103549,-2.7387913426518438
1647770411324315400,6.2733154296875,0.7674643816769122,2.375105914542079,-2.5148379180982707
1647770411334366200,6.2833662109375,-0.6942202817678451,0.9215969587683677,-1.218002236874774
1647770411344417000,6.2934169921875,-1.40647540192008,-0.042781157106161115,0.7355475868038833
1647770411354468000,6.303468017578125,-1.9332196408987044,0.02470540218949318,0.809158912590146
1647770411364519200,6.313519287109375,-3.4038153405517337,2.7029934685617683,-0.433176459095627
1647770411374570200,6.3235703125,-4.08382238804996,4.173649958491325,0.20931862213732674
1647770411384621000,6.33362109375,2.3962276130259035,4.129685729080438,1.6497973976798355
1647770411394672000,6.343672119140625,1.7299492311507463,4.143904808568954,0.8518887779004871
1647770411404723200,6.35372314453125,1.469911809042096,3.650795712688565,2.1891084188953043
1647770411414773200,6.363773193359375,-0.42731122032403945,4.19363359285593,1.285890728034824
1647770411424824300,6.37382421875,-2.0736936949938536,6.6858987368792295,-0.3501461475789547
1647770411434875100,6.383875244140625,-0.3046919718712568,6.155398360237479,2.4959686747163534
1647770411444926200,6.39392626953125,1.7368366525769232,4.444410434666276,5.486358696955442
1647770411454977300,6.403977294921875,3.1255840901046987,2.979166032913327,6.614875235629081
1647770411465028400,6.4140283203125,2.1395839250087736,0.9229045342355966,8.301780274823308
1647770411475079400,6.424079345703125,0.15871990488171578,-0.5582978996276855,10.875631815165281
1647770411485130200,6.434130126953125,-5.540548552304506,-1.7062933380141854,12.243645676743984
1647770411495181300,6.444181396484375,-7.113651855751872,-1.2403136565998196,11.923532263857126
1647770411505232100,6.454232177734375,-1.909986064827442,-1.3771753654167056,10.049101496535538
1647770411515282200,6.4642822265625,-1.473252351641655,-1.9310481420785188,9.72326210721731
1647770411525333200,6.474333251953125,-2.6205279513210056,-0.5653349586576223,10.07675756522417
1647770411535384000,6.484384033203125,-2.8540871163487433,1.2658981797114013,8.770095121186971
1647770411545435100,6.49443505859375,-3.311417042839527,1.7720926748752592,6.165655550357699
1647770411555486200,6.504486328125,-4.331362147635221,2.3890116902977225,4.386403066855669
1647770411565537300,6.514537353515625,-4.802404373136162,3.1206910573661326,3.548144608770311
1647770411575588400,6.52458837890625,-3.8881899258345363,3.24534356521219,2.8782179335206743
1647770411585639200,6.53463916015625,-2.0816309177339076,3.2252640692576766,2.5260408646360037
1647770411595690200,6.544690185546875,-0.4531190307974815,3.0400375579833985,2.2221911888077854
1647770411605741300,6.5547412109375,0.5836556282460689,1.8296558060497043,1.8882088250443338
1647770411615792400,6.56479248046875,-0.04164250846505165,0.49284547650814053,1.9502739438131451
1647770411625842200,6.57484228515625,-2.192924470052123,3.3082737763777375,1.814365297937393
1647770411635893000,6.58489306640625,-0.9493430438280105,5.158434902578592,0.305550853722915
1647770411645944000,6.594944091796875,2.5417040054529902,4.354036628518998,-1.6083663400083779
1647770411655995100,6.6049951171875,4.289873368427157,3.0868411024734375,-2.8998025733411312
1647770411666046200,6.615046142578125,4.568859236633777,3.4330200999870892,-3.461289039877057
1647770411676097300,6.62509716796875,5.159491718155145,4.454580238763988,-4.302297088931501
1647770411686148000,6.635148193359375,5.317606642881035,4.988158999937773,-5.700209537428617
1647770411696199200,6.64519921875,5.197987745288014,5.36383180296123,-5.85007627376914
1647770411706250200,6.655250244140625,5.160493004152179,5.186086295092106,-6.894729703363776
1647770411716301300,6.66530126953125,4.733754030758142,4.962379246515035,-7.435283271986246
1647770411726351400,6.675351318359375,4.062887152048945,5.253505049848556,-7.825254064953326
1647770411736402200,6.685402099609375,3.4123569589257237,6.459276093116403,-8.776965591478348
1647770411746453200,6.695453369140625,2.8612966093361374,7.415187993940711,-9.950967285519837
1647770411756504300,6.70550439453125,2.6390491119176147,7.541833429169654,-10.735511396813392
1647770411766555400,6.715555419921875,2.0102444283902643,7.039134667167067,-10.79793599654436
1647770411776606200,6.725606201171875,0.5379004237651824,6.308905498906969,-10.235630614840984
1647770411786657000,6.735656982421875,-1.322296651020646,5.731728711286187,-9.349776000583171
1647770411796708000,6.7457080078125,-3.7269203364700076,4.637375723499059,-8.395912264460325
1647770411806759200,6.75575927734375,-6.864040550589561,2.9259023524984715,-6.459546142229438
1647770411816810200,6.765810302734375,-9.422348484840988,1.048969320032373,-4.625971701431274
1647770411826860300,6.7758603515625,-11.497419313406944,-0.5568913938306271,-3.3305531204640864
1647770411836911000,6.7859111328125,-12.518847934758663,-2.038629980397224,-2.09468095344305
1647770411846962200,6.795962158203125,-12.719690825098752,-2.986926730042696,-0.8906716591507196
1647770411857013200,6.80601318359375,-12.12371347541809,-3.3114825092911717,0.2305740117371082
1647770411867064300,6.816064208984375,-10.472600465095043,-3.1892890850350257,1.4136667747288942
1647770411877115100,6.826115234375,-8.489145259431004,-3.77957494507581,1.809788491541147
1647770411887166200,6.836166259765625,-6.824570125466585,-4.373450061780214,2.284207792259753
1647770411897217300,6.84621728515625,-5.629523305308818,-4.323542706055939,2.3391116410970687
1647770411907268400,6.856268310546875,-5.15791526261866,-3.5754297983199357,1.8687568133383987
1647770411917319400,6.8663193359375,-3.7132396016418934,-3.0315631596267223,2.691343947300315
1647770411927370200,6.876370361328125,-0.33179157572090623,-3.7730855830565093,1.4112228887081146
1647770411937420000,6.886419921875,3.5326544864326714,-4.427015063229203,0.08944616990834474
1647770411947470300,6.89647021484375,6.051562138187885,-3.6690488699987527,-0.4217380963668227
1647770411957521400,6.906521484375,7.122512623077631,-1.418400525252521,-3.6734970815792676
1647770411967572500,6.916572509765625,8.047766935309767,-0.9488332676749676,-4.967687874317169
1647770411977623300,6.926623291015625,-8.752383523407579,-0.6400292573750018,-0.05236994644552469
1647770411987674000,6.936674072265625,-30.354060403382775,4.8700817788288,19.839678313612936
1647770411997725200,6.94672509765625,3.4186072514921424,6.835586609521508,7.165491933104396
1647770412007776300,6.9567763671875,7.682871546888351,0.026912410714477298,5.2066106122046705
1647770412017827300,6.966827392578125,19.210353990125654,-11.653854906743764,3.1724560236558315
1647770412027878400,6.97687841796875,1.9572522583931684,-7.720720508289337,-19.80524296004772
1647770412037928400,6.986928466796875,-36.594745768022534,5.5373342664331195,-12.580855185860395
1647770412047979300,6.996979248046875,-30.713560070240497,0.42385191018301993,3.9956601204723117
1647770412058030300,7.0070302734375,4.76391536026597,1.0747929125968365,-1.5875189284212887
1647770412068081400,7.017081298828125,10.994818166559934,0.9012798546656966,-3.202828365565836
1647770412078132500,7.027132568359375,8.914143526637554,1.2318221609778701,-3.3680490306437014
1647770412088183300,7.037183349609375,9.044772478544711,1.4991276743933557,-3.574446340240538
1647770412098234400,7.047234375,6.905034239757061,1.94104229734838,-2.4331281876608726
1647770412108285400,7.057285400390625,7.923956431245803,0.16659012680016458,0.2157948141478002
1647770412118336500,7.06733642578125,9.846682735180854,0.4800778379369527,-0.7587454339746386
1647770412128387300,7.07738720703125,9.655496146458386,0.508116257006675,0.01025242718013469
1647770412138437400,7.087437255859375,6.7906596725583075,0.520855180940032,0.6089114673925563
1647770412148488200,7.09748828125,-37.83816645072698,2.538261756044626,0.37996936770621687
1647770412158539300,7.107539306640625,-38.4485873363018,1.542240255410969,-2.182417104563117
1647770412168590300,7.11759033203125,12.143319508641957,0.7965494602553546,3.26579335578382
1647770412178641400,7.127641357421875,10.50643609920144,1.0845461717829108,-0.5361699467107653
1647770412188692200,7.137692138671875,10.534158803385495,0.6815816764038056,-0.20158311424814163
1647770412198743300,7.147743408203125,12.403021415185927,-0.45713878783285616,-1.0306471891392022
1647770412208794400,7.15779443359375,11.19361523028612,-0.6317136297766119,-1.0183177958548069
1647770412218845400,7.167845458984375,6.653177201494574,-1.5490020046308637,0.8990551643535494
1647770412228896300,7.177896240234375,-18.74603318183422,-1.981608847144991,8.097197028911113
1647770412238947300,7.187947265625,-25.18625327682495,3.8346839610964056,-0.3040254342539236
1647770412248997400,7.197997314453125,6.191245334166288,0.9438563560452312,-4.427560714413225
1647770412259048200,7.208048095703125,9.724339965581894,0.14511223528981207,-0.1204142857544124
1647770412269099300,7.218099365234375,4.1758939380258315,-0.9888976401031017,1.0317419255733489
1647770412279150300,7.228150390625,4.182337122815847,-1.5163431592188774,1.6918239370264112
1647770412289201200,7.238201171875,-1.732808712235093,-0.2560531382454559,-1.1586213156886398
1647770412299252200,7.248252197265625,-11.165894864189625,1.761709228026867,-1.3812347238101064
1647770412309303300,7.25830322265625,-0.4175970510393381,1.0913256027899683,0.6840990660522133
1647770412319354400,7.268354248046875,5.129380073007941,-0.6363194430716336,-0.2944670765854418
1647770412329405200,7.2784052734375,2.533875503784418,-0.8152015537552535,0.31626740498319267
1647770412339456300,7.288456298828125,-0.24084756847023964,-0.03541892124246806,0.6240195681426673
1647770412349507300,7.29850732421875,-2.1924960155069826,0.5541002287421375,-0.48071825473234053
1647770412359557400,7.308557373046875,-1.5274223332464694,0.4947672018183395,-0.6586000292669981
1647770412369608400,7.3186083984375,0.561392943033576,-0.022424597775936125,0.16544387937448918
1647770412379659500,7.328659423828125,1.2593781302928924,-0.32933994478508827,0.36765257817506786
1647770412389710300,7.33871044921875,0.7949521080613136,-0.11614325737170875,-0.019533662107400596
1647770412399761400,7.348761474609375,-1.1854945634365082,0.2888509172040969,-0.12814590291976927
1647770412409812500,7.3588125,-0.9694166945636272,0.13479666604585944,-0.16728740661563352
1647770412419863300,7.36886328125,0.705602676525712,-0.12342935925927012,0.09535961346952244
1647770412429914000,7.3789140625,0.6904729119330644,-0.07171009527482092,0.1169456963283941
1647770412439965200,7.388965087890625,-0.4839367783874273,0.09643679598066955,-0.10473337181871756
1647770412450016300,7.399016357421875,-0.5517068307995796,0.10790054887905716,-0.08405815672706812
1647770412460067300,7.4090673828125,0.42457858048975466,-0.0435708827117458,0.050113016097899525
1647770412470117400,7.419117431640625,0.26506664844751354,0.009760857970640063,0.027949991867598143
1647770412480168400,7.42916845703125,-0.42051264622509477,0.12257252323422581,-0.08893438446130603
1647770412490219300,7.43921923828125,-0.0456353774935007,0.07921670804526657,-0.02878593123508617
1647770412500270300,7.449270263671875,0.3173983087092638,0.010706358659826219,0.026270843141619114
1647770412510321400,7.4593212890625,-0.14358254150450228,0.060339792813546955,-0.03279891146980226
1647770412520372500,7.46937255859375,-0.14722645096480846,0.052631519991159434,-0.03971731255613267
1647770412530423300,7.47942333984375,0.17282909425497053,-0.009290537045150996,0.011667056918144226
1647770412540474400,7.489474365234375,-0.03996434611976146,0.01785637654494494,0.003763864311855286
1647770412550525400,7.499525390625,-0.15865853008329867,0.03935553003903478,-0.0286257905036211
1647770412560576500,7.509576416015625,0.08146540028750895,0.0083677231118083,0.003989069636166095
1647770412570626300,7.519626220703125,0.027924948757886883,0.01677438999451697,-0.011154285090416669
1647770412580677400,7.529677490234375,-0.11830138525366782,0.049067507366649804,-0.02978769215615466
1647770412590728200,7.539728271484375,0.0296235693693161,0.028267368987388908,-0.008658705415017903
1647770412600779300,7.549779296875,0.038052375018596644,0.018915566741675136,-0.011028649416752159
1647770412610830300,7.559830322265625,-0.08273439731001854,0.056203825519978996,-0.029312786387093365
1647770412620881400,7.56988134765625,0.014411971712112425,0.041971119364909826,-0.019462222572695462
1647770412630932200,7.57993212890625,0.04570668916404247,0.029948453942127525,-0.016031170411780475
1647770412640983300,7.5899833984375,-0.04395546158254146,0.05771342636533081,-0.026589608500897883
1647770412651034400,7.600034423828125,-0.010578092637658118,0.052133361210674044,-0.021378394924942402
1647770412661085400,7.61008544921875,0.02609948689639568,0.04076287608630955,-0.009309387876093388
1647770412671135500,7.620135498046875,-0.04155541470348835,0.05093856193553656,-0.021669176298752427
1647770412681186600,7.6301865234375,-0.013726327535510062,0.0460039185449481,-0.01984424416022375
1647770412691237400,7.6402373046875,0.006785130095481872,0.05228475238010287,-0.018152455148380247
1647770412701288200,7.6502880859375,-0.02152034241259098,0.0582533784609288,-0.02046005623731762
1647770412711339300,7.66033935546875,-0.0074848027974367135,0.05154485726561397,-0.02276745639685541
1647770412721390300,7.670390380859375,0.01088905828297138,0.051378085863962766,-0.018819942613784224
1647770412731441200,7.680441162109375,-0.01323883627951145,0.058171143537573515,-0.027347934321220964
1647770412741492200,7.6904921875,-0.018221885389089584,0.054545390788465736,-0.025424090119171888
1647770412751543300,7.700543212890625,-0.011958148819208144,0.03066241089776158,-0.03173179369494319
1647770412761594400,7.710594482421875,-0.021415128472447396,0.017778452470526097,-0.020832140952721238
1647770412771645200,7.720645263671875,-0.024130817171931267,0.02343417667727917,-0.023179763524793087
1647770412781695500,7.730695556640625,-0.007093757653236389,0.027667393800243734,-0.010955912974104285
1647770412791746300,7.740746337890625,-0.010420856249332427,0.02971621608883142,0.002035926274396479
1647770412801797400,7.75079736328125,0.002991583031415939,0.025265118431486187,0.006864223213680088
1647770412811848400,7.760848388671875,0.01774666909277439,0.023627324629202483,0.022007596206571906
1647770412821899500,7.7708994140625,-0.009251227948069572,0.0258363059155643,0.03980716453036293
1647770412831950300,7.780950439453125,-0.04297521837353706,0.017992058688588438,0.0455222177089192
1647770412842001400,7.79100146484375,-0.06664601681828498,0.002731982247158885,0.03256846371479332
1647770412852052500,7.801052490234375,-0.06080138244330883,-0.01833718233183026,-0.0014310739827342331
1647770412862103300,7.811103271484375,-0.053718146184086796,-0.02970215103086084,-0.023201628296729174
1647770412872154000,7.821154052734375,-0.033897008904814716,-0.021261691476404665,-0.03844546598941088
1647770412882205200,7.831205078125,-0.02963350624144077,-0.006368621716462075,-0.044607349620014426
1647770412892255200,7.841255126953125,-0.006670563805103302,0.013705394345335662,-0.03491754759158939
1647770412902306300,7.851306396484375,-0.013052373796701431,0.022837672088854014,-0.003915328546520322
1647770412912357400,7.861357421875,-0.024082886376976965,0.03982259956151247,0.010020385689660906
1647770412922408400,7.871408447265625,-0.023738602983951567,0.04335274644903838,-0.006017123131360858
1647770412932459300,7.881459228515625,-0.010369418323040008,0.04740161998104304,-0.01281858330713585
1647770412942510300,7.89151025390625,-0.001197100830078125,0.044320970426686104,-0.018663729138765482
1647770412952561400,7.9015615234375,-0.003097381493449211,0.04667915092539042,-0.020950616233237088
1647770412962612500,7.911612548828125,-0.013976502904295921,0.06071195059418678,-0.017280567684676496
1647770412972663300,7.921663330078125,0.006551905861496925,0.06137644238490611,-0.02170357175869867
1647770412982714400,7.93171435546875,0.010163082095980644,0.07432769389469177,-0.021506222555693236
1647770412992764400,7.941764404296875,0.0065653498649597165,0.0674507938625291,-0.029335418344009666
1647770413002815500,7.9518154296875,0.00954407341480255,0.06428235642686486,-0.022972093857172877
1647770413012866600,7.961866455078125,0.007256839260458945,0.06749423114545643,-0.012248089942801743
1647770413022917600,7.971917724609375,0.011532616883516311,0.05821940312609076,-0.011811799151077865
1647770413032968400,7.981968505859375,0.0030821839243173597,0.05732716699410229,-0.004279577015340328
1647770413043019500,7.99201953125,0.003451601758599281,0.061037419688887894,0.004040964220184832
1647770413053070600,8.002070556640625,-0.014442366850376129,0.06598737024646252,-0.0062970177849754685
1647770413063121700,8.01212158203125,-0.024113866037130356,0.06809172211457043,-0.008732336906809359
1647770413073172500,8.02217236328125,-0.017775310665369033,0.06114705407582223,-0.003273139919154346
1647770413083223300,8.032223388671875,-0.01278524729311466,0.05471351389698684,0.012084789139870553
1647770413093274400,8.0422744140625,-0.00943126069009304,0.04289681937508285,0.003497687656339258
1647770413103324400,8.052324462890626,-0.026261399459838866,0.04091638614758849,-0.004623001891840249
1647770413113375500,8.06237548828125,-0.0172235220015049,0.04362875037882477,-0.021020539664290846
1647770413123426600,8.072426513671875,-0.007425766086578369,0.04303524146508425,-0.031013708553463217
1647770413133477400,8.082477294921874,-0.002573065358400345,0.04761851413473486,-0.03778291042745113
1647770413143528400,8.092528564453126,-0.014760931280255317,0.03773227621875703,-0.026630378902703523
1647770413153579500,8.10257958984375,-0.018564999738335607,0.02430091304183006,-0.03298782163802534
1647770413163630600,8.112630615234375,-0.02475976272523403,0.015422865787707268,-0.041597865605726835
1647770413173681400,8.122681396484374,-0.03544190025925636,0.02253434176072478,-0.040164837127923965
1647770413183732500,8.132732421875,-0.007669511714577674,0.037682664923369885,-0.034228505881503224
1647770413193783600,8.142783447265625,-0.0039987142473459246,0.05270469482522457,-0.036266477982513604
1647770413203834600,8.152834716796875,-0.012153379130363464,0.04977192930895835,-0.015669515758845953
1647770413213884400,8.162884521484376,-0.022554361635446548,0.014259996020793914,0.00823277162052691
1647770413223935500,8.172935546875,0.003116670715808868,0.00363616454526782,0.00357446095328778
1647770413233986300,8.182986328125,0.003348725906014442,0.013742840278893708,-0.022174678135477004
1647770413244037400,8.193037353515624,-0.028296120157837865,0.022703195521607995,-0.033133550251647825
1647770413254088400,8.20308837890625,-0.026564766320586203,0.011429777563549577,-0.031428719095140695
1647770413264139500,8.213139404296875,-0.021235095730423925,0.00742448744494468,-0.029845285828597842
1647770413274190300,8.2231904296875,-0.01713409015238285,0.013781637919321655,-0.02768626289749518
1647770413284241400,8.233241455078126,0.00010346037447452545,0.019932196438312528,-0.0626702267888002
1647770413294292500,8.24329248046875,0.0015764555364847182,0.019986264713108538,-0.04228089770013466
1647770413304343600,8.253343505859375,0.008563830205798149,0.010419833336025476,-0.0030021774906665087
1647770413314393600,8.2633935546875,-0.0019458733707666397,0.009231281138584017,0.028563867715932428
1647770413324444400,8.2734443359375,-0.02037877116203308,0.012626111208647489,0.016475589711032808
1647770413334495500,8.28349560546875,-0.015599720191955565,0.013083463054709137,-0.012312515214830635
1647770413344546600,8.293546630859375,-0.05027414321005344,0.01814388824943453,-0.014182035413756965
1647770413354597600,8.30359765625,-0.07996843972802162,0.005834624437615275,-0.0014106705155223606
1647770413364648400,8.3136484375,-0.049777299603819845,0.006784837834537029,0.01966474114116281
1647770413374699300,8.32369921875,-0.027076222974061964,0.04583374960981309,0.028807503746077417
1647770413384750300,8.333750244140624,-0.023239421290159223,0.05849785474129021,0.022451704978570342
1647770413394801400,8.343801513671876,-0.0006698620855808258,0.03570051466282457,0.09284604147970676
1647770413404852500,8.3538525390625,0.0020540099203586576,0.022165727644041178,0.040837037301063535
1647770413414903300,8.3639033203125,-0.03409340825974941,-0.020554054663702845,-0.0932365021020174
1647770413424953300,8.373953369140626,-0.04611702353060245,0.017835004963353274,-0.10513590647131205
1647770413435004400,8.38400439453125,-0.012646715605258941,0.016982041395828127,-0.08047551246732473
1647770413445055500,8.394055419921875,-0.03406301312148571,-0.012138693017885088,-0.05539773330148309
1647770413455106600,8.4041064453125,-0.03061082684099674,-0.011526077544875443,-0.05418324294518679
1647770413465157600,8.41415771484375,-0.019648118799924848,-0.013688077884353696,-0.04433901754003018
1647770413475208400,8.42420849609375,-0.03936521118283272,0.010551606489531695,-0.025126659808866678
1647770413485259500,8.434259521484375,-0.022266776865720747,0.03580218493901193,-0.02880772294178605
1647770413495310600,8.444310546875,0.0000678045392036438,0.05622822930887341,-0.051385355854965745
1647770413505361700,8.454361572265626,-0.006788637226819992,0.06434862659610807,-0.045763643515668806
1647770413515412500,8.46441259765625,-0.012300678646564483,0.062669112543948,-0.02914163107126951
1647770413525463300,8.47446337890625,-0.021396423771977424,0.056012285003252324,-0.012287599969282746
1647770413535513300,8.484513427734376,-0.013292612293362616,0.04852971069552004,0.014518610424362121
1647770413545564400,8.494564453125,-0.02524725398123264,0.04537833399251103,0.029087708926945923
1647770413555615500,8.504615478515625,-0.008932663518190383,0.045838096991367636,0.004335033529624343
1647770413565666600,8.51466650390625,0.020538345637917517,0.055430174266360696,0.003778459092788398
1647770413575717400,8.52471728515625,0.006291209098696709,0.05841927307974547,-0.004666219979058951
1647770413585768400,8.5347685546875,0.013713468053936957,0.06256904970295726,0.004489603036828339
1647770413595819500,8.544819580078125,0.005566401955485344,0.06090224900189787,0.0019294154263101518
1647770413605870600,8.55487060546875,-0.00931143370270729,0.05425513913761824,0.0010433715730905533
1647770413615921400,8.56492138671875,-0.04348199885189533,0.05053893162608147,0.024074630005285143
1647770413625972500,8.574972412109375,-0.04173720101118088,0.033047844729572534,0.01926507429908961
1647770413636023600,8.5850234375,-0.036380642414093015,0.00898516089040786,-0.0003271313288249075
1647770413646073300,8.5950732421875,-0.023245851030945775,0.007306085229665041,-0.001370484635606408
1647770413656124400,8.60512451171875,-0.020143208840489386,0.0046098318830132485,-0.0011646963978186248
1647770413666175500,8.615175537109375,-0.006561842733621597,0.013211582946404813,-0.005334109303262085
1647770413676226300,8.625226318359376,-0.008093874606490135,0.022662571250274776,-0.01493674450488761
1647770413686277400,8.63527734375,-0.002305938854813576,0.01519044527132064,-0.007983345170412211
1647770413696328400,8.645328369140625,-0.0042991584986448285,-0.0071552785821259015,0.005054068519175052
1647770413706379500,8.655379638671874,0.0052186114311218255,0.013843962565809487,-0.017709771148487926
1647770413716430300,8.665430419921876,0.002291325807571411,0.02047887053564191,-0.029234168192930517
1647770413726481400,8.6754814453125,-0.009913491249084472,0.009807985047996043,0.0015759806124493478
1647770413736532500,8.685532470703125,-0.0024871406406164168,0.11228676460664719,0.043969709303602576
1647770413746583600,8.69558349609375,-0.03787760297358036,0.10101345624644309,0.07376308228187263
1647770413756633600,8.705633544921875,0.1571066244661808,0.06756718678381293,-0.006858122266456484
1647770413766684400,8.715684326171875,0.061350833019614213,0.12753120508752763,0.026384112524054943
1647770413776735500,8.725735595703124,-0.10250877283811569,0.00949073579236865,-0.022759072161000222
1647770413786786600,8.73578662109375,-0.04803133271932602,-0.0688118165500462,-0.0624956556731835
1647770413796837600,8.745837646484375,-0.009127309307456016,-0.10219287528935819,-0.03853577462136745
1647770413806888400,8.755888427734375,-0.023193244060873985,-0.10648333902489393,-0.06743174210218712
1647770413816939300,8.765939208984374,-0.1130868654757738,-0.11800989149380475,-0.04648715375093743
1647770413826990300,8.775990234375,0.01535772812962532,-0.13838135613221675,-0.02734426279310137
1647770413837041400,8.78604150390625,0.007497077757120132,0.0112591337043792,0.06111594655150547
1647770413847092500,8.796092529296875,-0.06442015746235848,0.004458184985257685,0.004221946810279042
1647770413857143300,8.806143310546876,0.014486205992102623,0.04921502607855945,0.025402755070198325
1647770413867193300,8.816193359375,0.05938917755782604,0.06987002036608755,0.011238821568712592
1647770413877244400,8.826244384765625,-0.04805588263869285,0.07879446404520422,-0.0024021840372122822
1647770413887295500,8.83629541015625,-0.0037923780202865597,0.0708708679717034,0.020502963797282427
1647770413897346600,8.8463466796875,0.025353052443265914,0.04532572702243924,0.0032693039942532777
1647770413907397600,8.856397705078125,-0.04740998595058918,0.039873343368060886,0.011348163694702089
1647770413917448400,8.866448486328125,-0.008397241467237472,0.02339121431838721,-0.017217768114153296
1647770413927499500,8.87649951171875,0.024036124625802038,0.044219555878825485,-0.010960242089349776
1647770413937550600,8.886550537109375,-0.025537176838517188,0.03789711139164865,-0.010439780145511031
1647770413947601700,8.8966015625,-0.026920155629515646,0.028875198687426745,-0.000913699045125395
1647770413957652500,8.906652587890624,-0.019458733707666397,0.04270432901028543,0.012014847442507743
1647770413967703300,8.916703369140626,-0.03518354158401489,0.028242928665876386,0.002951543281972408
1647770413977753300,8.92675341796875,-0.01858545800447464,0.026553550806827843,-0.014441051676124333
1647770413987804400,8.936804443359375,-0.034302667096257206,0.011932356790825724,-0.024848445655684916
1647770413997855500,8.94685546875,-0.04941080437898636,0.027884507149644196,-0.027308406028430907
1647770414007906600,8.956906494140625,-0.031603345009684564,0.024777955969050525,-0.027617051852494478
1647770414017957400,8.966957275390625,-0.003326514074206352,0.02255735731013119,-0.028292594760190692
1647770414028008400,8.977008544921874,-0.027718028008937835,0.03520041965357959,-0.020448420598451048
1647770414038059500,8.9870595703125,-0.01725567070543766,0.03506397032495588,-0.023551373316161334
1647770414048110600,8.997110595703125,0.023272154515981674,0.03874386441409588,-0.01720280800703913
1647770414058161400,9.007161376953125,0.009034954848885536,0.0298422901539132,-0.007863244188390671
1647770414068212500,9.01721240234375,-0.0038531682968139646,0.04067322504147887,-0.002112973565980792
1647770414078262500,9.027262451171875,0.0038970074385404584,0.04324943220503628,-0.01092827604850754
1647770414088313300,9.037313232421875,0.010288169780373573,0.04443520792350173,0.0015807481191121042
1647770414098364400,9.047364501953124,0.0021668226450681687,0.035637970820628105,-0.014467629155796021
1647770414108415500,9.05741552734375,-0.017483634242415426,0.041623401905782516,-0.008105966903083026
1647770414118466300,9.06746630859375,-0.0021276596784591674,0.04292235567513853,-0.028078952009510248
1647770414128517400,9.077517333984375,-0.0038379707276821134,0.028444479119963943,-0.021388824987411497
1647770414138568400,9.087568359375,-0.01600947003662586,0.01655987046100199,-0.03707635132698342
1647770414148619500,9.09761962890625,-0.00244037888944149,0.00485854594707489,-0.034131676177214826
1647770414158670300,9.10767041015625,-0.02027414174377918,0.0027218627119436857,-0.014489658324513583
1647770414168721400,9.117721435546875,-0.019994740280508995,-0.007724712500534951,-0.030770054257009176
1647770414178772500,9.1277724609375,-0.030765725141763685,0.0016832038465887306,-0.019824297350738197
1647770414188823600,9.137823486328125,-0.02657879484593868,0.00793181591257453,-0.018286858650390057
1647770414198873600,9.14787353515625,-0.009067103552818298,0.016688428744114935,-0.020844708173349498
1647770414208924400,9.15792431640625,-0.02747077524960041,0.021662892688438296,-0.009552421118039637
1647770414218975500,9.1679755859375,-0.02103402020037174,0.02914689176827669,-0.013994732680730522
1647770414229026600,9.178026611328125,-0.017615736189484595,0.04572817034348845,-0.009928031231090427
1647770414239077600,9.18807763671875,-0.16848258948326109,0.1909258919596672,0.003462725940812379
1647770414249128400,9.19812841796875,-0.7128764669209718,0.6370943729668855,-0.01151066078003496
1647770414259179300,9.20817919921875,-0.13870353729128837,-0.27875962170269336,-0.2898795113331638
1647770414269230300,9.218230224609375,0.8338409339040518,-0.5849947678953409,0.26634234920544547
1647770414279281400,9.228281494140624,1.1169798301368952,-0.11342895691171288,-0.19302571378313005
1647770414289332500,9.23833251953125,-0.467933738091588,-0.06881013604961335,0.16290378470392897
1647770414299383300,9.24838330078125,-0.537416439640522,-0.007415829214453697,0.14521684644175692
1647770414309433300,9.258433349609374,0.1344324358433485,0.3924500060295686,-0.10597252169223502
