time,seconds_elapsed,z,y,x
1647770415324639000,0.007638916015625,-0.6068833590984344,0.16406459037791937,-0.06268871229356154
1647770415334690000,0.01768994140625,-0.140257780995965,-0.025623649545572696,-0.0428053416993469
1647770415344741000,0.0277412109375,0.5135983416795731,-0.06296703604459762,0.06615841596443206
1647770415354792200,0.037792236328125,-0.13750059124231337,0.06076287706382572,-0.06371518753077834
1647770415364843000,0.047843017578125,-0.3477174591273069,0.050952700058743354,-0.030626718529872594
1647770415374894000,0.05789404296875,0.31324644972682,-0.041940249302610755,0.01743659849660471
1647770415384945200,0.067945068359375,-0.0015016367346048355,0.03280654678698629,-0.004749605679884553
1647770415394996200,0.077996337890625,-0.20248831945955753,0.047300351563654836,-0.03519325926043093
1647770415405047300,0.08804736328125,0.16677753913104534,-0.022433986658789217,-0.0033279023136943576
1647770415415098000,0.09809814453125,-0.016862871995568275,0.017598310130648314,-0.008511332833580671
1647770415425149200,0.108149169921875,-0.12282850728929041,0.01386990072466433,-0.029927338088862596
1647770415435200300,0.1182001953125,0.09465046055316924,0.006169665078260004,0.009249985839053988
1647770415445250000,0.12825,-0.027175591695308685,0.017965170681662857,-0.008155523399543016
1647770415455301000,0.138301025390625,-0.07972469410002231,0.031150742403976618,-0.02523064990630373
1647770415465352000,0.14835205078125,0.0747276164650917,0.016770298341289163,-0.0009319653541781008
1647770415475403000,0.158403076171875,0.008100304347276687,0.03612432956546545,0.016755082505848257
1647770415485454000,0.1684541015625,-0.027546763095259663,0.043484336939454075,-0.0017520678317174314
1647770415495505200,0.178505126953125,-0.015416764840483665,-0.009840243349783121,0.005085048179328441
1647770415505556200,0.18855615234375,-0.02367664366364479,-0.002974449233524501,-0.002837707643955946
1647770415515607000,0.19860693359375,0.008638649007678032,0.003232588713057339,-0.02320139083471149
1647770415525658000,0.208658203125,-0.012308861953020096,0.013182356851920485,0.010200601094774902
1647770415535709200,0.218709228515625,-0.02144318552315235,0.024364589395187795,-0.00518103763340041
1647770415545760300,0.22876025390625,-0.04179448415637016,0.026293475098535416,-0.0020896657556295395
1647770415555810300,0.238810302734375,0.004898877957463264,0.003697575876303017,-0.029114980526361613
1647770415565861000,0.248861083984375,-0.05900222406685352,0.017930610824935137,-0.020021884015761316
1647770415575912200,0.258912109375,0.00684182871878147,0.036838140390627085,-0.0026937691286206245
1647770415585963000,0.268962890625,0.016878069564700126,0.014283924885652959,-0.02405800766404718
1647770415596014000,0.27901416015625,-0.05238192914426326,0.023475348937883972,-0.014298684063367545
1647770415606065200,0.289065185546875,0.07330255209803581,0.03967679788265377,0.007385306212026626
1647770415616116000,0.299115966796875,0.3084907796323299,-0.0035769817039370535,0.06636424073483795
1647770415626167000,0.3091669921875,-0.13898761492967604,-0.012482282291166484,-0.06215929985828697
1647770415636218000,0.319218017578125,-0.45489539282023905,0.05335822683051228,-0.032092535032425075
1647770415646269200,0.329269287109375,0.018493688067793845,0.016466858415305614,-0.01586790614146739
1647770415656320000,0.339320068359375,0.21584873629212378,0.00600680266674608,-0.012878149740956723
1647770415666371000,0.34937109375,-0.10792962884306907,0.020486323189735412,-0.019177962271217257
1647770415676421000,0.359421142578125,0.015787936240434647,0.0010057429764419794,0.006030475803278386
1647770415686472200,0.36947216796875,0.26522388483583925,0.013020005897060035,0.018799374749790876
1647770415696523300,0.379523193359375,0.024184593185782432,0.035565453573688864,0.007804317075386643
1647770415706574000,0.389573974609375,0.013142390167713165,0.023490436909161506,0.005124046749155968
1647770415716625200,0.399625244140625,-0.0738087480545044,0.013255093294568358,0.006718165806494653
1647770415726676200,0.40967626953125,0.016974515676498412,0.0010496917160227894,0.05798051633629948
1647770415736727300,0.419727294921875,0.4133405626386404,-0.13013320427946745,-0.15144826991092414
1647770415746778000,0.429778076171875,-0.0804611916810274,0.05488178313598036,-0.09015300300344824
1647770415756829000,0.439828857421875,-0.4290402360737324,0.23921730038728564,-1.5309826560765505
1647770415766880000,0.4498798828125,-0.7684674212396144,-1.3497040056452154,-4.071239677591621
1647770415776931000,0.45993115234375,-1.988334794399142,-1.7421015873678027,-5.902495027792454
1647770415786981000,0.469981201171875,-1.3193237726897,-2.0664327640801665,-4.717424534986913
1647770415797032200,0.4800322265625,-0.6604518676787614,-0.011408771308138966,3.9246035937353967
1647770415807083000,0.4900830078125,2.4688673173010347,0.8005352419558912,6.399543216687441
1647770415817134000,0.500134033203125,2.567342889100313,0.5693520853444933,4.7801340891391035
1647770415827185200,0.51018505859375,-2.1669658529311415,0.24766459154132753,2.671246038906276
1647770415837236200,0.520236328125,-6.53218467746079,-0.7706441807568073,-1.010280912132561
1647770415847287300,0.530287353515625,-4.885962361788749,-1.2583375351987778,-0.953755088116601
1647770415857338000,0.540338134765625,-2.8962790753901,-0.9899141236692667,-0.6528210805393755
1647770415867389200,0.55038916015625,-2.9570138223379847,-0.2507685854386538,-1.5344609997116028
1647770415877440300,0.560440185546875,-3.0062802498102186,0.27784670810885725,-2.039370423500985
1647770415887491300,0.5704912109375,-2.9958360126852988,0.37272637430801986,-2.9830168631225824
1647770415897542100,0.580542236328125,-2.9670740285813806,0.2988483604095876,-4.098055496063828
1647770415907592000,0.590592041015625,-3.7937832109093663,0.31895094497874377,-5.309720858067274
1647770415917643000,0.60064306640625,-4.870967621752619,0.6956054525159299,-6.331245341008901
1647770415927694000,0.610694091796875,-5.417193390792608,1.2748283590115606,-7.133142738163471
1647770415937745200,0.6207451171875,-5.483091804113984,1.903067809871584,-8.081250102716684
1647770415947796200,0.630796142578125,-5.219594012418389,3.154940532970428,-7.3467925031065935
1647770415957847300,0.640847412109375,-4.798163666826486,4.096957763954997,-4.439370686933398
1647770415967898400,0.6508984375,-3.8078199195683,3.19212606202662,-2.4353610612794756
1647770415977949400,0.660949462890625,-2.3913024315834046,2.063756092216819,-1.8476386219859122
1647770415988000500,0.67100048828125,-1.2287474297076464,1.9123809971399603,-2.030510094566643
1647770415998051300,0.68105126953125,-0.23609306741952896,2.332134933952242,-2.680082548573613
1647770416008102400,0.691102294921875,0.7418161456793546,2.595103294946253,-3.4318297211587425
1647770416018152400,0.70115234375,1.6984288882493972,2.500081662993133,-3.85330741302371
1647770416028203500,0.71120361328125,2.491974636644125,2.4198925662517548,-3.585891571101546
1647770416038254300,0.72125439453125,3.207282714626193,2.7717282743528484,-2.8367858529359102
1647770416048305200,0.73130517578125,3.7930665870726106,3.3420413136839864,-2.1223300078690053
1647770416058356200,0.741356201171875,4.13018607981801,3.9560672380134463,-0.7549971142917871
1647770416068407300,0.7514072265625,4.4285605391055345,3.922818756145239,1.0734598373621702
1647770416078458400,0.761458251953125,4.786263970196247,3.322121976727247,2.3043892872840166
1647770416088509400,0.771509521484375,5.013165430900454,2.6532871883675453,2.6380653615772722
1647770416098560300,0.781560302734375,5.082350026285648,2.370248391508311,2.7108897747695444
1647770416108611300,0.791611328125,4.965737909293175,2.37976206978485,3.1471593775749205
1647770416118662400,0.801662353515625,4.839944706979393,2.3135262412026525,4.260344783864915
1647770416128713500,0.81171337890625,4.736277411755919,2.078386821246147,5.475795217365026
1647770416138763500,0.821763427734375,4.450607535740733,1.5661208972141145,6.018764614957571
1647770416148814300,0.831814453125,4.112531765183806,0.9964208021495491,5.814974565249681
1647770416158865400,0.841865478515625,3.9825679991871117,0.7476415638972074,5.125429289555549
1647770416168916500,0.85191650390625,4.037316072940826,0.7714410302229225,4.568688556241989
1647770416178967600,0.861967529296875,4.238589171391725,0.9116051415860652,4.519690716578066
1647770416189018400,0.872018310546875,4.541071065998077,1.0234810238368808,4.8252419356271625
1647770416199069200,0.882069091796875,4.800747838100791,0.8628458599183708,5.361623479261994
1647770416209120300,0.892120361328125,4.987535899603366,0.4384612676307559,6.498163749915361
1647770416219171300,0.90217138671875,4.993040926760435,-0.22041217175014316,7.086223166078328
1647770416229222400,0.912222412109375,4.722694292083382,-0.8476035017967224,6.4503036821097135
1647770416239273200,0.922273193359375,4.147814090967178,-1.3885392016045748,4.62597024012655
1647770416249324300,0.93232421875,3.4051270076721907,-1.9340170748867094,2.4821190130621194
1647770416259374300,0.942374267578125,2.5665041001886126,-2.097932064193487,1.5329497183658183
1647770416269425400,0.95242529296875,1.6960674198150634,-1.42093910381943,2.4720751734316346
1647770416279476500,0.9624765625,1.0119044216811657,-0.3402975017270073,4.113999499648809
1647770416289527300,0.97252734375,1.1540578071653842,0.02013966517653316,4.84744879899919
1647770416299578400,0.982578369140625,1.157905714765191,0.1839892976295203,4.3984173297762865
1647770416309629400,0.99262939453125,0.7554881126791239,0.2145520110124722,3.118025053027272
1647770416319680500,1.002680419921875,0.44930560998916624,-0.07842077189460396,0.8543009536087512
1647770416329731600,1.012731689453125,0.07086217320859432,-0.18049466044679283,-1.5448866782665251
1647770416339782400,1.022782470703125,-11.324174039566516,-1.0545406904239207,-1.592269483949244
1647770416349833500,1.03283349609375,-27.444794420647618,-2.110171514172107,2.6406480715468525
1647770416359884300,1.04288427734375,-7.839565498900413,-0.5201080158345401,1.3388446118481456
1647770416369934300,1.052934326171875,2.6499504451602696,-1.807432429934293,0.7268057696826755
1647770416379985400,1.0629853515625,2.8804911391496657,-1.7562587075360119,0.3355321504887193
1647770416390036200,1.0730361328125,-0.8447890288978814,-0.6148014387466013,0.1398021461829543
1647770416400087300,1.08308740234375,-1.451401754361391,0.6770860454849899,-0.12139949739947914
1647770416410138400,1.093138427734375,-0.46849429458379743,1.1186598191130905,0.1318982046579942
1647770416420189400,1.103189453125,0.769891316562891,0.374924030482769,-0.05064779882803559
1647770416430240500,1.113240478515625,1.4195020567536354,-0.18690204327106474,-0.4686750945108011
1647770416440291300,1.123291259765625,0.6829150438994169,-0.0983861399501562,-0.6136771839570254
1647770416450342400,1.13334228515625,-0.6378986750870943,0.1652359357122332,0.1331607354070991
1647770416460393500,1.1433935546875,-1.3138877191156149,0.22501550082713365,0.5911016334030776
1647770416470444500,1.153444580078125,-0.6944277870386838,0.2100301862064749,-0.04102414823784493
1647770416480495400,1.163495361328125,0.07340659699440003,-0.43682336423061785,0.23149233215842394
1647770416490545200,1.173545166015625,0.3641659051030874,-0.12142843123301864,0.4615337713887915
1647770416500596200,1.18359619140625,0.13980653009712696,0.13709880550839007,0.023619068257510662
1647770416510647300,1.193647216796875,0.058116088882088655,0.1103852053016424,0.14360248831398784
1647770416520698400,1.203698486328125,0.007117138528823852,0.18908903192132712,0.20598624457791445
1647770416530749400,1.21374951171875,-0.062252750295400616,0.08804609385207295,0.1447412374197971
1647770416540800300,1.22380029296875,-0.17965630992650986,0.015036314155533909,-0.026725856900122014
1647770416550851300,1.233851318359375,0.027161563169956205,0.056358139298856254,-0.04813355098478496
1647770416560902400,1.24390234375,0.20138181952238082,0.09649915715977549,-0.05787681849980726
1647770416570953500,1.253953369140625,0.1984416744172573,0.12686981856934726,-0.07459545971909537
1647770416581004300,1.26400439453125,0.10231295800507068,0.11359130786657333,-0.05675333089521154
1647770416591055400,1.274055419921875,0.01503916369974613,0.059824134908989066,-0.04761732682464644
1647770416601105400,1.28410546875,-0.022497078490257262,0.03411247828640043,-0.051823856870085
1647770416611156500,1.294156494140625,-0.053418286454677576,0.03706920920014381,-0.06343690031236038
1647770416621207600,1.30420751953125,-0.04543371744155884,0.02802826300188899,-0.058827050163038075
1647770416631258400,1.31425830078125,-0.018012626552581786,0.0012973463341593742,-0.051891560944588855
1647770416641309200,1.32430908203125,0.009539981761574745,-0.015843831146135925,-0.043458727574162186
1647770416651360300,1.3343603515625,0.024360534274578093,-0.011506897920370102,-0.027397326420899478
1647770416661411300,1.344411376953125,-0.004665653723478317,0.004936506554111838,0.003765855339542031
1647770416671462400,1.35446240234375,-0.04670505255162716,0.002914864533394575,0.062425275584403424
1647770416681513200,1.36451318359375,-0.06655716949105263,0.0005274579402059316,0.11848558271415531
1647770416691564300,1.374564208984375,-0.06570961275100708,0.01996229931563139,0.11420975029217079
1647770416701615400,1.384615478515625,-0.041025253349542615,0.03399177451618016,0.10287126774126663
1647770416711666400,1.39466650390625,-0.0031570027261972424,0.06549750437028706,0.07708389726765454
1647770416721716500,1.404716552734375,0.0059463411837816236,0.07594919414930044,0.07028154204273596
1647770416731767300,1.414767333984375,-0.00907704042494297,0.05441292351521551,0.06395085031702183
1647770416741818400,1.424818359375,-0.011976268997788428,0.01490413914322853,0.04875805782498792
1647770416751869400,1.434869384765625,-0.013375614401698111,-0.008867270131781697,0.020511375432601196
1647770416761920500,1.44492041015625,-0.034679683715105054,-0.019703356118500232,0.002291070079244673
1647770416771971600,1.4549716796875,-0.041319267860054965,-0.037496860027685756,-0.01780682004848495
1647770416782022400,1.4650224609375,-0.03790332193672657,-0.02956219457089901,-0.03434085281533189
1647770416792073500,1.475073486328125,-0.04117605999708175,-0.039550943013280625,-0.04442758173947222
1647770416802124300,1.485124267578125,-0.029755671316385266,-0.038799905450269574,-0.05966443256894126
1647770416812175400,1.49517529296875,-0.020126842227578164,-0.021605317282304165,-0.08723149866671301
1647770416822226200,1.50522607421875,-0.016063830572366714,0.010560264720022678,-0.10496431276407092
1647770416832276200,1.515276123046875,-0.001709142005443573,0.029177433037012812,-0.1233956305196043
1647770416842327300,1.525327392578125,0.04103752830922603,0.02819967404603958,-0.13200593934878707
1647770416852378400,1.53537841796875,0.04230360272228718,0.030484935439005493,-0.14431985193626024
1647770416862429400,1.545429443359375,0.029025603476166725,0.044516383400931954,-0.1462354397666175
1647770416872480500,1.55548046875,0.013051204752922057,0.04354001264944672,-0.1497387351798359
1647770416882531300,1.56553125,0.016072013878822327,0.05590170076824724,-0.1458452440057881
1647770416892582400,1.57558251953125,0.03686345749497413,0.07215542788952589,-0.1406029320386704
1647770416902633500,1.585633544921875,0.030678046858310697,0.058089493136107916,-0.10755669474429451
1647770416912684500,1.5956845703125,0.023708207845687865,0.035046032809466124,-0.0846082283578813
1647770416922735400,1.6057353515625,0.01868424220383167,0.0042881987132132055,-0.08052693212730809
1647770416932786400,1.615786376953125,0.0017015432208776474,-0.026976781187579034,-0.07559397837030701
1647770416942837500,1.62583740234375,-0.036675241446495054,-0.050707127799838776,-0.07653155148136428
1647770416952886500,1.635886474609375,-0.05692775588035583,-0.05496135117821395,-0.07016820872821845
1647770416962937600,1.6459375,-0.04617021502256393,-0.056335854401811956,-0.06455140089290216
1647770416972988700,1.65598876953125,-0.0376274276047945,-0.06112316174358129,-0.06035864364448935
1647770416983039700,1.666039794921875,-0.04106558535993099,-0.06005772446915507,-0.036630306326225395
1647770416993090600,1.676090576171875,-0.046888007903099056,-0.07080861639045179,-0.01779480081712827
1647770417003141600,1.6861416015625,-0.0386380659520626,-0.06666691347584128,-0.0041924649874679745
1647770417013192700,1.696192626953125,-0.03664192369878292,-0.07373093357793986,0.02772743515809998
1647770417023243800,1.706243896484375,-0.05045768308341503,-0.07177220072560012,0.043585276563279325
1647770417033294600,1.716294677734375,-0.06948153250515461,-0.052317923997342586,0.0488210948575288
1647770417043345700,1.726345703125,-0.07171440612375736,-0.027686829153075812,0.045359464895259584
1647770417053396700,1.736396728515625,-0.06286883636713028,-0.000309285144880414,0.03220869049169123
1647770417063447800,1.74644775390625,-0.029773206973075866,0.012568097411096095,0.009199077635724097
1647770417073497600,1.75649755859375,-0.00507072739303112,-0.0038308833997696638,0.02409958178345114
1647770417083548700,1.766548583984375,0.026024083572626113,0.018178557704016565,0.03455311645967886
1647770417093599500,1.776599609375,0.037142858958244325,0.03398023020885885,0.029040453985426574
1647770417103650600,1.786650634765625,0.029043723654747007,0.06608714082650839,0.022853673375584183
1647770417113701600,1.79670166015625,0.025715456014871595,0.06571947655789553,-0.027305099826492367
1647770417123752700,1.806752685546875,-0.0015174188256263732,0.05443754649981856,-0.033447255843319
1647770417133803500,1.816803466796875,-0.023792378997802732,0.015807298528030513,-0.013851506551448255
1647770417143854600,1.8268544921875,-0.014683774390816688,0.013134279926493762,0.001898910690192133
1647770417153905700,1.83690576171875,0.027094927674531935,0.032934374417737125,0.037272860279772425
1647770417163956700,1.846956787109375,0.07012976728081703,0.04516147637143731,0.029837814908195284
1647770417174007600,1.857007568359375,0.054961424243450165,0.03043963499255478,0.008357146918866782
1647770417184057600,1.8670576171875,0.015632453417778015,-0.06285970321260392,0.04474334229091182
1647770417194108700,1.877108642578125,-0.04227788375914097,-0.020407558865100144,0.06034516310840845
1647770417204159700,1.88715966796875,-0.046177813807129854,0.050096960012242196,0.0392942283058539
1647770417214210600,1.89721044921875,-0.007756020954251289,0.05329166440032422,0.04702394577506929
1647770417224261600,1.90726171875,0.049205052673816675,0.047951107089966534,0.0666443545841612
1647770417234312400,1.9173125,0.04058452384471893,0.028184987933561206,0.07233876683348789
1647770417244363500,1.927363525390625,-0.04120762417912483,0.042377325545623894,0.09862681683823465
1647770417254414600,1.93741455078125,-0.12108429397046565,0.0762850019749254,0.12135185886546969
1647770417264465700,1.947465576171875,-0.15340601638257503,0.1109386744659394,0.13767640446694568
1647770417274516500,1.9575166015625,-0.12648176909983158,0.1219271745353937,0.12835689705563708
1647770417284567600,1.967567626953125,-0.046782209441065786,0.1118324815005064,0.09872720847278833
1647770417294618600,1.97761865234375,0.016917232531309126,0.09087393768914043,0.07657298860345035
1647770417304668700,1.987668701171875,0.05392565145492553,0.06591171119436622,0.04265495517691597
1647770417314719700,1.9977197265625,0.04324234487712383,0.05639722920022905,0.01914504638230428
1647770417324770800,2.007770751953125,0.019002222111821173,0.05710135888159275,-0.0008288703058846295
1647770417334821600,2.017821533203125,0.001273088675737381,0.03994783337637782,-0.03469557540398091
1647770417344872700,2.027872802734375,0.003402501919865608,0.051075303525105115,-0.04275452482756227
1647770417354923800,2.037923828125,0.023328268617391585,0.07311104811392724,-0.029783015981037168
1647770417364974800,2.047974853515625,0.03114683341383934,0.09199819247871636,-0.00031489290175959467
1647770417375025400,2.058025390625,0.009508417579531669,0.08351013092286884,0.026296032381802795
1647770417385076500,2.068076416015625,-0.007167991933226585,0.06527882011830806,0.04013581196283921
1647770417395127600,2.07812744140625,-0.013790624943375587,0.03610124095082283,0.0417724915202707
1647770417405178600,2.0881787109375,-0.016710896304249764,0.020041867357864975,0.011412680298276245
1647770417415228700,2.098228759765625,0.007700491374731063,0.006969839012622833,-0.036761878550332035
1647770417425279700,2.10827978515625,0.009939210212230681,0.009982830158248543,-0.06991718397606164
1647770417435330600,2.11833056640625,0.0031938276052474973,-0.00380837930701673,-0.10421115630920975
1647770417445381600,2.128381591796875,-0.013564414972066879,-0.019943229288980364,-0.11050309606026858
1647770417455432700,2.1384326171875,-0.04136661413311958,-0.03551854569204151,-0.09698708680719137
1647770417465483800,2.14848388671875,-0.06253390532433986,-0.07061199783980845,-0.09033288961499929
1647770417475534600,2.15853466796875,-0.07943710933029652,-0.09443959428146481,-0.08905676873195915
1647770417485585700,2.168585693359375,-0.07113923658430577,-0.08060637230537832,-0.09994308706857263
1647770417495636700,2.17863671875,-0.05201835652887821,-0.07909246061109006,-0.10219378860481083
1647770417505687800,2.188687744140625,-0.02044365309178829,-0.06883329772949218,-0.10274840854657813
1647770417515738600,2.198738525390625,-0.026761165675520896,-0.054086321909353134,-0.10812710591023787
1647770417525789700,2.208789794921875,-0.00933539910018444,-0.050627998149022455,-0.11858898828970267
1647770417535839500,2.218839599609375,0.010016951623558997,-0.028551702354103325,-0.1065780133047141
1647770417545890600,2.228890625,0.006904372560977936,-0.012203355751931667,-0.08929202052624896
1647770417555941600,2.238941650390625,-0.010149638092517852,-0.007325739778205752,-0.06311669191466644
1647770417565992700,2.24899267578125,-0.015676292559504507,0.008612126326933502,-0.02972766906460747
1647770417576043500,2.25904345703125,-0.03673895433247089,-0.004757642855867743,0.028837149965669957
1647770417586094600,2.269094482421875,-0.04609247361123561,-0.014284107548743485,0.06730172251434996
1647770417596145700,2.279145751953125,-0.04882394440174102,-0.011044614170864223,0.09118545132372528
1647770417606196700,2.28919677734375,-0.0489817653119564,-0.009467354916781186,0.09458992600496857
1647770417616247600,2.29924755859375,-0.054199207699298854,0.0007127513792365788,0.06324519539885222
1647770417626298600,2.309298583984375,-0.0374181687682867,0.015998583316430448,0.035970947368349875
1647770417636349700,2.319349609375,-0.017639117065072058,0.00526515398658812,0.021155509421881286
1647770417646400800,2.32940087890625,-0.010862170276045798,-0.010399667330831289,0.005650664439145475
1647770417656450600,2.339450439453125,0.002044073048233986,-0.021786299872398374,-0.042773119930177926
1647770417666501600,2.349501708984375,-0.0015682722300291061,-0.019834873543679712,-0.09671342096496373
1647770417676552400,2.359552490234375,0.003633388066291809,-0.01477627497985959,-0.13958499630093574
1647770417686603500,2.369603515625,0.01448328338265419,-0.018841916983574628,-0.15794387900792062
1647770417696654600,2.379654541015625,0.018867197555303573,-0.016718129762634634,-0.17090196211729197
1647770417706705700,2.38970556640625,0.018909867653250693,-0.002870806195959449,-0.1936704962263815
1647770417716756500,2.399756591796875,-0.0012760112851858138,0.013744301583617925,-0.20278701014518738
1647770417726807600,2.4098076171875,0.004986556240916252,0.027128683813661337,-0.20304385271677747
1647770417736858600,2.419858642578125,0.0164870244204998,0.0308124138277024,-0.1943932027440518
1647770417746909700,2.42990966796875,0.006294716230034828,0.0409562797665596,-0.1674322036474943
1647770417756960500,2.43996044921875,-0.0047702831417322155,0.05258344306573271,-0.14866866739606485
1647770417767010800,2.4500107421875,-0.016285364368557927,0.057076662831753486,-0.12250371404802426
1647770417777061600,2.4600615234375,-0.0164566292822361,0.07400953132361174,-0.07679623943269252
1647770417787112700,2.47011279296875,-0.011827800437808036,0.08359737081490456,-0.010392762666009366
1647770417797163800,2.480163818359375,-0.016922493228316307,0.07385076056532561,0.049004525133036075
1647770417807214800,2.49021484375,-0.021083120039105414,0.06720986124612391,0.0936146146994084
1647770417817265400,2.500265380859375,-0.03674363050758839,0.05206168421395123,0.1353268639324233
1647770417827316500,2.51031640625,-0.05594108293056488,0.04362418380156159,0.15876286724060773
1647770417837367600,2.520367431640625,-0.03501695284545421,0.04821735681071877,0.18153907319949938
1647770417847418600,2.530418701171875,-0.024259411987662315,0.035226284747198224,0.1854112932566553
1647770417857469400,2.540469482421875,-0.017544424518942833,0.02276851584278047,0.17676036928929387
1647770417867520500,2.5505205078125,-0.006793313401937485,0.027466099074482917,0.16372096457201987
1647770417877570600,2.560570556640625,-0.025090602114796638,0.020198300028592346,0.14921649227086453
1647770417887621600,2.57062158203125,-0.028573183533549307,0.0012690700877457856,0.14723845192985607
1647770417897672700,2.580672607421875,-0.023987024787068364,-0.009694441670924425,0.13804978609029203
1647770417907723800,2.590723876953125,-0.03958148428201675,-0.021086773300915955,0.11917363804355263
1647770417917774600,2.600774658203125,-0.03135083155333996,-0.027286431658640503,0.10429046862311661
1647770417927825700,2.61082568359375,-0.033433483046293254,-0.03425963167212903,0.06037860872028395
1647770417937876700,2.620876708984375,-0.03384031028151512,-0.030213351956009864,0.010696019928902387
1647770417947927800,2.630927734375,-0.033363924941420556,-0.009700652216002345,-0.03723006231766194
1647770417957978600,2.640978515625,-0.0240595055013895,-0.02155329483412206,-0.09104304717835038
1647770417968029700,2.65102978515625,-0.002622165197134018,-0.06666961688958108,-0.1193067446376197
1647770417978080800,2.661080810546875,0.010135609567165374,-0.10396759334430097,-0.13504466772386803
1647770417988131800,2.6711318359375,0.007765957826375961,-0.11696414530053734,-0.18680802657837048
1647770417998182700,2.6811826171875,0.002523380997776985,-0.1187980096641928,-0.21412633294630795
1647770418008232700,2.691232666015625,-0.005735328781604767,-0.13851590576469897,-0.23965366424424572
1647770418018283800,2.70128369140625,-0.009798340436816214,-0.14427351944334804,-0.2582237968154251
1647770418028334800,2.7113349609375,-0.02802665556669235,-0.1251446022119373,-0.2594194911397062
1647770418038386000,2.721385986328125,-0.023933833295106885,-0.0897665609691292,-0.2713713563486002
1647770418048437000,2.73143701171875,-0.027167408388853072,-0.043476007502526046,-0.2621104107241146
1647770418058487800,2.74148779296875,-0.01571019482910633,0.005807882561162114,-0.25676192583562807
1647770418068539000,2.751538818359375,-0.010217442631721496,0.039350013613700864,-0.23023195683378725
1647770418078589700,2.761589599609375,0.0033808746099472046,0.06203830382712185,-0.20798658808227627
1647770418088640800,2.771640869140625,0.002144610813260078,0.08544650581292808,-0.1827417817864567
1647770418098691600,2.781691650390625,-0.018001520636677742,0.10070691104792058,-0.16188410453367977
1647770418108742700,2.79174267578125,-0.0034878421157598493,0.11740721289291978,-0.12513051888765767
1647770418118792700,2.801792724609375,0.030285832670331,0.09890753347575663,-0.05376750175114721
1647770418128843800,2.81184375,0.047881110593676564,0.034861104696616525,0.03068758187163621
1647770418138894800,2.821894775390625,0.01908873135149479,0.00018478198237717152,0.10040171755626798
1647770418148946000,2.83194580078125,-0.009105097475647925,-0.030387393348664044,0.15514913372285663
1647770418158996700,2.841996826171875,-0.034715924072265626,-0.06556114419102668,0.21718851526221258
1647770418169047800,2.8520478515625,-0.04411971223354339,-0.08717859030254185,0.25875273432666435
1647770418179099000,2.862098876953125,-0.04109422693252563,-0.059708326509594914,0.2827747573618777
1647770418189150000,2.87214990234375,-0.03868775031268597,-0.03371880279369652,0.27990634405240417
1647770418199200800,2.88220068359375,-0.023279168778657912,-0.012796280143782496,0.24948961501140146
1647770418209251800,2.892251953125,-0.004591419443488121,0.002773191040381789,0.20913064355086533
1647770418219303000,2.902302978515625,-0.007287234398722648,-0.003985270243883132,0.18943769922852516
1647770418229354000,2.91235400390625,-0.017737316742539404,0.0023853607665747403,0.15880055063618345
1647770418239403800,2.92240380859375,-0.03191606422066688,0.02447122810743749,0.11777367158513516
1647770418249454800,2.932454833984375,-0.03891220671832561,0.06487148142643273,0.07039875694792717
1647770418259505700,2.942505615234375,-0.013416530933976172,0.09136559366360306,0.015857859671488405
1647770418269556700,2.952556640625,-0.00539747512936592,0.11376001549698411,-0.048525710373837495
1647770418279607800,2.96260791015625,-0.0160644150942564,0.12132993929460643,-0.09882911621099337
1647770418289659000,2.972658935546875,-0.018498948764801026,0.11258373825922607,-0.1243938934424892
1647770418299709700,2.982709716796875,-0.02169979063272476,0.09071450934372842,-0.14106442120373247
1647770418309760800,2.9927607421875,-0.023442834907770157,0.08474778295904398,-0.16956596427317708
1647770418319811800,3.002811767578125,-0.03223872030377388,0.09499993157796562,-0.21668420073557643
1647770418329863000,3.01286279296875,-0.013495441389083861,0.07716251546181738,-0.24375174721283838
1647770418339913700,3.022913818359375,0.008695932152867316,0.028080431580543515,-0.24323802553704008
1647770418349964800,3.03296484375,-0.009085808253288268,0.02026508165448904,-0.22356669025830922
1647770418360014600,3.0430146484375,-0.05354337413907051,0.05805573699697852,-0.22987130682785062
1647770418370065700,3.053065673828125,-0.05338087705373764,0.048777474911510944,-0.2218561417470686
1647770418380116700,3.06311669921875,0.001402268013358116,0.004750920854136347,-0.19264466030998154
1647770418390167800,3.073167724609375,0.010253682988882065,-0.015418810667097568,-0.16263709659175946
1647770418400218600,3.083218505859375,-0.019810031363368032,0.0025153438217937947,-0.15208192817196248
1647770418410269700,3.093269775390625,-0.04435936620831489,0.026512597741931675,-0.15437780229048803
1647770418420320800,3.10332080078125,-0.04049041582047939,0.016564692766591907,-0.1524486060598865
1647770418430371800,3.113371826171875,-0.001619125634431839,0.021099705847725272,-0.1372172807889059
1647770418440422700,3.123422607421875,0.018370938470959663,0.007698957004770636,-0.11637469150740652
1647770418450473700,3.1334736328125,0.0345820685595274,-0.017568462981656194,-0.08532828626073896
1647770418460524800,3.14352490234375,0.04807867899239063,-0.050778074144199485,-0.023568671510834246
1647770418470575900,3.153575927734375,0.03624444881379604,-0.07406637607738376,0.05942888851370662
1647770418480626000,3.1636259765625,-0.0013303718209266662,-0.08503134914077817,0.12048530516400932
1647770418490677000,3.173677001953125,-0.014942133066058159,-0.10320165047310292,0.1849912777462974
1647770418500727800,3.183727783203125,-0.024187515795230864,-0.11987849837727844,0.24364611314758658
1647770418510779000,3.19377880859375,-0.01931435680091381,-0.11381569120697677,0.2945651849313639
1647770418520829700,3.20382958984375,-0.018004443246126173,-0.0756241269133985,0.31686000058148056
1647770418530880800,3.213880859375,-0.03641396016180515,-0.04958937581628561,0.3411836003791541
1647770418540931600,3.223931640625,-0.03188800716996193,-0.014899097641929983,0.3247175822140649
1647770418550982700,3.233982666015625,-0.0385205770522356,0.0395217169187963,0.28845725997770205
1647770418561033700,3.24403369140625,-0.04677461065649986,0.07202529870383441,0.24062771517448125
1647770418571084800,3.254084716796875,-0.02208499055802822,0.06602496231049299,0.1793764335392043
1647770418581136000,3.264135986328125,0.014138415467739104,0.03929404564276338,0.12433394341617822
1647770418591186700,3.274186767578125,0.016491116073727607,0.04118731204345822,0.0715084534891881
1647770418601236700,3.28423681640625,0.00457271474301815,0.04018281117603183,0.020096355757769194
1647770418611287800,3.294287841796875,-0.004221417087316512,0.019203151511400937,-0.018763426653575152
1647770418621339000,3.3043388671875,0.008797054439783096,0.005636471517011523,-0.05210033572390675
1647770418631390000,3.314389892578125,-0.0004909983873367309,0.006893047449365258,-0.07389909321907907
1647770418641440800,3.324440673828125,-0.008277414479851723,-0.00146386200748384,-0.07899648942332714
1647770418651491800,3.334491943359375,-0.013948445853590964,-0.010909078157693148,-0.07518040173389016
1647770418661543000,3.34454296875,-0.014840426257252692,-0.004912906482815742,-0.0855668442569673
1647770418671594000,3.354593994140625,-0.006004793372750282,0.0269151141282171,-0.09139584267139435
1647770418681644800,3.364644775390625,-0.0018009119421243667,0.028274712043628095,-0.10313443045578896
1647770418691695600,3.374695556640625,0.006878069075942039,0.0422159975040704,-0.10846117843650281
1647770418701746700,3.38474658203125,0.018832710763812065,0.054960036003962154,-0.10068736609723418
1647770418711797800,3.3947978515625,0.03270283068418502,0.050056774132326246,-0.09478172225002199
1647770418721847800,3.404847900390625,0.028881226569414137,0.0534467818967998,-0.07433342951573431
1647770418731899000,3.41489892578125,0.011105331382155418,0.05833389635123312,-0.06199753342531621
1647770418741949700,3.42494970703125,-0.011897358542680739,0.059853068742528555,-0.05131240021660924
1647770418752000800,3.435000732421875,-0.011699205622076988,0.03856565830297768,-0.04377268889416009
1647770418762051800,3.4450517578125,-0.015974398723244666,0.018520137683302164,-0.038977563572116194
1647770418772103000,3.45510302734375,-0.0018359832555055618,-0.015005699821561575,-0.021944339978322385
1647770418782153700,3.46515380859375,-0.008040683114528656,-0.04634944404698908,0.008241722111962736
1647770418792204800,3.475204833984375,-0.018145897543430326,-0.064137541128695,0.020248532378487286
1647770418802256000,3.485255859375,-0.023300796088576315,-0.0707479722443968,0.04021221993360668
1647770418812307000,3.495306884765625,-0.03381225323081016,-0.07198416297584771,0.0598554068300873
1647770418822358000,3.50535791015625,-0.04369184221029281,-0.07178411035910248,0.06867094677463173
1647770418832408800,3.515408935546875,-0.05653320360481739,-0.06504924914613366,0.07621025623828172
1647770418842458600,3.525458740234375,-0.04825812721252441,-0.0447833637740463,0.07300265583600848
1647770418852509700,3.535509765625,-0.03172141843140125,-0.033793037073686714,0.06019545243941247
1647770418862560800,3.545560791015625,-0.0229354699075222,-0.019647095886617897,0.06578801174946129
1647770418872611800,3.55561181640625,-0.026259645894169806,-0.008200476786121725,0.0726861007001251
1647770418882662700,3.56566259765625,-0.039293314990401264,0.003263604905828833,0.052391792951151726
1647770418892713700,3.575713623046875,-0.02868599625825882,-0.002395297638699412,0.019006021504104135
1647770418902764800,3.585764892578125,-0.007446808874607086,0.0050601329337805505,0.0065974985688924785
1647770418912815900,3.59581591796875,0.00421674091219902,0.01725128679126501,-0.01750931667294353
1647770418922867000,3.605866943359375,-0.009147767573595046,0.05323043573237955,-0.04431720756702125
1647770418932917800,3.615917724609375,-0.005938157877326012,0.07216112697795032,-0.06588763619903475
1647770418942968800,3.62596875,0.011174889487028121,0.06681377460062503,-0.058827817348018285
1647770418953020400,3.6360205078125,0.020053192469477652,0.06890855492278933,-0.049013366026617586
1647770418963070500,3.646070556640625,0.01693067653477192,0.07494272052049636,-0.055276700737699865
1647770418973121300,3.656121337890625,0.01709142005443573,0.05578691528216004,-0.07271152740232646
1647770418983172400,3.66617236328125,0.016050386568903924,0.02788015976808965,-0.05442264119163155
1647770418993223400,3.676223388671875,0.019158873978257177,0.021939882998913526,-0.04819945582784712
1647770419003274500,3.6862744140625,0.0035199908196926113,0.031862726598232985,-0.030390242892876267
1647770419013325600,3.69632568359375,0.00253448691368103,0.03842639596275985,-0.020870061810314654
1647770419023376400,3.70637646484375,0.004217909955978393,0.032958632076159115,-0.0070769526489079
1647770419033427500,3.716427490234375,-0.004524199426174163,0.014710881593450903,0.012862440715171395
1647770419043478500,3.726478515625,-0.009658055183291435,0.01385842948257923,0.024708690125122664
1647770419053529300,3.736529296875,-0.021223405292630195,0.036326281878352164,0.0370819225512445
1647770419063580200,3.746580078125,-0.012603460985422133,0.03531242866069078,0.0453369790688157
1647770419073631200,3.75663134765625,-0.008207271853089332,0.025822569651156663,0.05067614813968539
1647770419083682300,3.766682373046875,-0.008752046254277229,0.02747428238093853,0.04573167747482657
1647770419093732400,3.776732421875,-0.016786884149909018,0.019950243551656602,0.036963045411929484
1647770419103783400,3.786783447265625,-0.019727613776922226,0.0041870033610612156,0.040801308400556444
1647770419113834500,3.79683447265625,-0.04866203183829784,0.005099222835153341,0.029835294157546013
1647770419123885300,3.80688525390625,-0.058226563519239424,0.012364464597776532,0.008308503737859428
1647770419133936400,3.816936279296875,-0.03633037353157997,0.0022976824831217528,0.005360558918770402
1647770419143987500,3.826987548828125,-0.019973112970590592,-0.002275982107967138,-0.005552921419404447
1647770419154038500,3.83703857421875,-0.010652911439538,-0.008051350639015435,-0.010876180535089224
1647770419164089300,3.84708935546875,-0.003745616269111633,-0.02783551690876484,-0.016163802081812173
1647770419174140400,3.857140380859375,-0.010175941577553749,-0.026272140049561857,-0.033203254486992954
1647770419184191500,3.86719140625,-0.005987257716059685,-0.02324965042322874,-0.030945885747950524
1647770419194242600,3.87724267578125,-0.023648002091050148,-0.016553367654979226,-0.02720414193635806
1647770419204293400,3.88729345703125,-0.012855974441766739,-0.01908960813432932,-0.033936902523785825
1647770419214343400,3.897343505859375,-0.00942775355875492,-0.02759162515029311,-0.02573850809689611
1647770419224394200,3.907394287109375,-0.028586043015122412,-0.020658976342901585,-0.013693740440160035
1647770419234445300,3.9174453125,-0.021565350598096847,-0.018863836554437876,-0.002331365557014942
1647770419244496400,3.927496337890625,-0.006761164698004722,-0.008328487079963087,0.009734335289895533
1647770419254547500,3.93754736328125,-0.012610475248098373,-0.009464870698750018,0.008662212546356022
1647770419264598300,3.947598388671875,-0.022487726140022278,0.018153715523704886,0.0002953844836913049
1647770419274649300,3.9576494140625,-0.026085458371043205,0.037748277505487204,-0.017854842174984512
1647770419284700400,3.967700439453125,0.003559738308191299,0.040193551765754815,-0.011360895312111824
1647770419294751500,3.97775146484375,0.017921441137790678,0.028778204586356878,-0.01795439355932176
1647770419304802300,3.98780224609375,-0.0015437223106622695,0.02957943796664476,-0.0230826232932508
1647770419314853400,3.997853271484375,-0.01324935767352581,0.030107772689685224,-0.031128238311223685
1647770419324904400,4.007904541015625,-0.013293196815252303,0.01868679948709905,-0.02655157804545015
1647770419334954200,4.017954345703125,-0.013496025910973548,-0.004674640747532249,-0.04124603822706267
1647770419345005300,4.02800537109375,-0.0138379712164402,-0.010285831692814827,-0.04596678313864395
1647770419355056400,4.038056396484375,-0.013583119672536849,-0.011891805584728717,-0.04743382348390296
1647770419365107200,4.048107177734375,-0.021101824739575385,-0.01836180531643331,-0.059925165864359586
1647770419375158300,4.058158203125,-0.014987725773453711,-0.024286884516477585,-0.06393681265851482
1647770419385209300,4.068209228515625,-0.020837036323547362,-0.025685353137552738,-0.06920501711871474
1647770419395260400,4.078260498046875,-0.01726443853378296,-0.03818805716224014,-0.06547158447774126
1647770419405311200,4.088311279296875,-0.02252805815041065,-0.034645123858377334,-0.0565346649095416
1647770419415362300,4.0983623046875,-0.030181203252077102,-0.015278013956919311,-0.05694233239497989
1647770419425413400,4.108413330078125,-0.013877134183049202,-0.020841566368192434,-0.04617151193050668
1647770419435464400,4.11846435546875,-0.008353986847400664,-0.002267725736275315,-0.03489944567931816
1647770419445515500,4.128515625,-0.019878420424461363,0.013905191233754157,-0.0286605512897484
1647770419455565600,4.138565673828125,-0.01465571734011173,0.010686083056777715,-0.014732508903369307
1647770419465616400,4.148616455078125,-0.01795358984172344,0.0001730915445834398,0.0029165267675183714
1647770419475667500,4.15866748046875,-0.035306291180849075,0.011716814344003797,-0.004906586339883506
1647770419485718500,4.168718505859375,-0.040378187617659565,0.017370675387233494,-0.010284406920708715
1647770419495769300,4.178769287109375,-0.020767478218674657,0.0030017390992492436,-0.009981569782923907
1647770419505820200,4.188820068359375,-0.014461656072735786,-0.003260901492089033,-0.007384520760737359
1647770419515871200,4.198871337890625,-0.01728138966858387,-0.005725757235661148,-0.011080233473517
1647770419525922300,4.20892236328125,-0.02625029354393482,-0.0050307607088238,-0.019101663898304103
1647770419535973400,4.218973388671875,-0.024279285731911657,-0.007825798254832626,-0.02536430448964238
1647770419546024400,4.2290244140625,-0.009317278921604156,-0.009835603707283735,-0.023026892784330993
1647770419556075300,4.2390751953125,-0.010814824002981185,-0.014232669622451066,-0.02078382656527683
1647770419566126300,4.249126220703125,-0.011413374418020247,-0.008386281681805849,-0.022769849283341317
1647770419576177400,4.259177490234375,-0.017403554743528366,-0.0018722966779023407,-0.017959215864911674
1647770419586227500,4.2692275390625,-0.017985154023766516,0.0017794307626783847,-0.023658943610172716
1647770419596278500,4.279278564453125,-0.01436345639526844,-0.0015574585750699043,-0.021473799857124685
1647770419606329300,4.289329345703125,-0.018649755412340163,0.01956372845210135,-0.02743069896753877
1647770419616380400,4.29938037109375,-0.0280506209641695,0.05533237644769251,-0.049193033442459996
1647770419626431500,4.309431396484375,-0.013234160104393959,0.0361523866161704,-0.04762543706586584
1647770419636482600,4.319482666015625,0.006356675550341606,0.027277444634586572,-0.03058154594758525
1647770419646533400,4.329533447265625,0.010825345396995544,0.020763605761155483,-0.020028551218565553
1647770419656584200,4.339584228515625,-0.004910568395256996,0.016980141699686646,-0.005426463761832564
1647770419666635300,4.34963525390625,-0.012734393888711929,0.00036612989865243434,0.008888203321956098
1647770419676686300,4.359686279296875,-0.016511574339866636,-0.008612345522642135,0.017905951307713986
1647770419686737400,4.3697373046875,-0.006512158372998237,-0.01265029580183327,0.025127463526464996
1647770419696788200,4.379788330078125,-0.007573065602779388,-0.01339146955795586,0.023863544537872074
1647770419706838300,4.38983837890625,-0.0013145897299051284,-0.021192425632476804,0.020484715754538772
1647770419716889300,4.399889404296875,-0.009998831444978713,-0.007117357724532485,0.0037257425248622893
1647770419726940400,4.4099404296875,-0.020039163944125173,0.00030972353629767893,-0.00711691933311522
1647770419736991500,4.419991455078125,-0.02437105566859245,0.011948577273264527,0.0006755977066233754
1647770419747042300,4.430042236328125,-0.03019698534309864,0.003942161754518747,0.004496909560449422
1647770419757093400,4.44009326171875,-0.025696751314401627,0.0014092092107981442,-0.0053445758983492846
1647770419767144400,4.45014453125,-0.015052023181319235,-0.009110431237891316,-0.01774619416873902
1647770419777195500,4.460195556640625,-0.024008067575097082,-0.02087758752964437,-0.017936382978595792
1647770419787246600,4.47024658203125,-0.021901450684666632,-0.00828778974339366,-0.022274339117668567
1647770419797297400,4.48029736328125,-0.026233926931023596,0.00980323580764234,-0.02193107863795012
1647770419807348500,4.490348388671875,-0.001381225225329399,0.005082490896061062,-0.00264722657315433
1647770419817399300,4.5003994140625,0.0005880290210247039,-0.004440905056893825,0.01827694004457444
1647770419827449300,4.510449462890625,-0.013602993416786193,0.0003263824101537466,0.022168138796836136
1647770419837500400,4.52050048828125,-0.014307926815748214,0.01362761640138924,0.030078838856145738
1647770419847551200,4.53055126953125,-0.027106618112325665,0.013483970146998762,0.03789510209765285
1647770419857602300,4.540602294921875,-0.02091243964731693,0.018609423401951788,0.035148068411834536
1647770419867653400,4.5506533203125,-0.01561433323919773,0.028663711361214518,0.03532349804397672
1647770419877704400,4.560704345703125,-0.01213525895178318,0.03169328831546008,0.02573386845439672
1647770419887755500,4.570755615234375,-0.006714987468719482,0.030975349304452535,0.022473953342996535
1647770419897806300,4.580806396484375,0.010667524486780166,0.024864319078251717,0.010086582793667911
1647770419907857400,4.590857421875,-0.0006599252134561538,0.020778949460759758,0.007607150535471737
1647770419917908500,4.600908447265625,0.002649637725949287,0.029856574407592415,-0.014023337720707059
1647770419927959600,4.61095947265625,-0.003186228820681572,0.03254690947011113,-0.03930405558012426
1647770419938010400,4.62101025390625,0.0012847791135311127,0.023807868827879428,-0.04687390631251037
1647770419948060200,4.63106005859375,0.009928688818216323,0.015014467649906873,-0.040014286208711565
1647770419958111500,4.641111572265625,-0.0001391162097454071,0.024133520585671066,-0.045149457140080625
1647770419968162600,4.65116259765625,-0.001250292322039604,0.02904584254659712,-0.028809439974837002
1647770419978213400,4.66121337890625,-0.01716097815930843,0.022440452932193874,-0.01897957188859582
1647770419988264400,4.671264404296875,-0.009714169284701347,0.01771378973647952,-0.006824073866382241
1647770419998315300,4.681315185546875,-0.004347673815488815,0.0169048845063895,0.00560512653067708
1647770420008366300,4.691366455078125,-0.016359598648548124,0.010150003418698907,0.009668466979451477
1647770420018417400,4.70141748046875,-0.010582768812775612,0.005228109911829233,0.01354983845744282
1647770420028468500,4.711468505859375,-0.011392331629991531,0.011209010952338576,0.02276749292947352
1647770420038519300,4.721519287109375,0.0000637128859758377,0.012142492410168052,0.026557752057909965
1647770420048570400,4.7315703125,-0.008827449578046799,0.01898220223709941,0.01942223762217909
1647770420058621400,4.741621337890625,-0.01768821690380573,0.01317475806735456,0.02962660157661885
1647770420068672500,4.751672607421875,-0.000339022696018219,0.006552636513859033,0.030829876419156788
1647770420078722600,4.76172265625,-0.016503391033411027,-0.0024123949039727447,0.01915288262888789
1647770420088773400,4.7717734375,-0.020710195073485375,-0.001850742433220148,0.015862681977078318
1647770420098824400,4.781824462890625,-0.016233341920375823,-0.005462576254829764,0.012816519214212894
1647770420108875500,4.79187548828125,-0.003988192853331566,-0.015179741214215755,0.01783233808223158
1647770420118926600,4.801926513671875,-0.014350012391805647,-0.022311638920754193,0.012419044329226017
1647770420128977700,4.811977783203125,-0.03696574882566929,-0.0026974223904311654,0.0068572089510038495
1647770420139028200,4.8220283203125,-0.019162965631484983,0.00031169629767537115,-0.0029505751675926147
1647770420149079300,4.832079345703125,-0.010324994659423827,0.0013125439032912255,-0.006802811882644891
1647770420159130400,4.84213037109375,-0.0032820904105901718,0.028761984103918073,-0.021090554426889865
1647770420169181400,4.852181396484375,-0.0028442835152149197,0.046487318147718906,-0.039669217364396894
1647770420179232300,4.862232177734375,-0.0043944355666637415,0.04567351754680276,-0.03588146072030067
1647770420189283300,4.872283447265625,0.0021229835033416745,0.050645387675240634,-0.032482794725336134
1647770420199334400,4.88233447265625,-0.009482114094495772,0.04628390453010797,-0.02995888400459662
1647770420209384400,4.892384521484375,-0.019138415712118148,0.03547368363700807,-0.013599340154975652
1647770420219435500,4.902435546875,-0.010699673190712928,0.007641966120526194,-0.0067924366191029545
1647770420229486600,4.912486572265625,-0.00762742613852024,-0.005408507980033755,-0.0014630765561945735
1647770420239537400,4.922537353515625,-0.009622399348020554,-0.0009388882853090763,0.011483717974182218
1647770420249588500,4.93258837890625,-0.017909166178107262,-0.010282909083366393,0.008026490192394703
1647770420259639600,4.9426396484375,-0.018257541224360466,-0.0030806495543569323,0.01212824468910694
1647770420269690600,4.952690673828125,-0.020997779843211172,-0.015317761445417999,0.005617511088214814
1647770420279741400,4.962741455078125,-0.014902970099449157,-0.01851794572621584,-0.006774371239449828
1647770420289792500,4.97279248046875,-0.017476035457849502,-0.020501813019812107,-0.030254633814468978
1647770420299843300,4.98284326171875,-0.017346856120228765,-0.044588498789072034,-0.041006219855509694
1647770420309894400,4.992894287109375,-0.01931084966957569,-0.047917424016073344,-0.05255016185063868
1647770420319945200,5.0029453125,-0.026817279776930807,-0.03513371109291911,-0.05949161501899361
1647770420329996300,5.012996337890625,-0.03415653662383556,-0.0509138293530792,-0.0683108812905848
1647770420340046300,5.02304638671875,-0.02651566648185253,-0.05191628439389169,-0.07754840950686484
1647770420350097400,5.033097412109375,-0.02767301982343197,-0.0593875701226294,-0.0680233330534771
1647770420360148500,5.0431484375,-0.02971767739355564,-0.07873955552019178,-0.07822839112766086
1647770420370199600,5.053199462890625,-0.03370645476877689,-0.05921170209906995,-0.09099332628510892
1647770420380250400,5.06325048828125,-0.021678747844696044,-0.057965136104077095,-0.09317320934114977
1647770420390301400,5.073301513671875,-0.01758592557311058,-0.044791181754320855,-0.08479394192202017
1647770420400352500,5.0833525390625,-0.004370470169186592,-0.03344473509266972,-0.08217437054077163
1647770420410403600,5.093403564453125,-0.01764262419641018,-0.026254092936217784,-0.07198887568358331
1647770420420454400,5.103454345703125,-0.036435587471723554,-0.013024462876468896,-0.06375765669932588
1647770420430505500,5.11350537109375,-0.029919921967387197,-0.001278495503216982,-0.060094019625242794
1647770420440556500,5.123556640625,-0.019650456887483597,0.0024167788181453944,-0.03796615803986787
1647770420450607600,5.133607666015625,-0.004132569760084152,0.009919701794162392,-0.021673012223653493
1647770420460657400,5.143657470703125,-0.001952303111553192,0.01723535856977105,-0.004834470951743423
1647770420470708500,5.15370849609375,-0.007729132947325706,0.029242972553893923,-0.0073561714490875596
1647770420480759300,5.16375927734375,0.0007025953114032745,0.028020664217323063,0.007996551711857319
1647770420490810400,5.173810302734375,0.0013508300870656966,0.02665953193195164,0.025557635104656216
1647770420500861400,5.183861328125,0.007384849554300308,0.052481297865509986,0.029763635427132246
1647770420510912500,5.19391259765625,-0.008723404681682586,0.07833981561288238,0.03712568862773478
1647770420520963300,5.20396337890625,-0.008828034099936485,0.09858414674028754,0.033155323692038656
1647770420531014400,5.214014404296875,0.007822071927785872,0.08861651415117085,0.05237465915326029
1647770420541065500,5.2240654296875,0.0026180735439062116,0.1028963839162141,0.05337959841210395
1647770420551116500,5.234116455078125,-0.000987257471680641,0.09837181916385888,0.04790145926196128
1647770420561167400,5.24416748046875,0.006928337958455085,0.08392075755037366,0.05605418791621923
1647770420571218400,5.254218505859375,0.00047112464308738706,0.07145736262276768,0.06445723806973547
1647770420581268200,5.264268310546875,-0.004350011903047561,0.04183993073329329,0.06409030445348471
1647770420591319300,5.2743193359375,0.003233575093746185,0.009844663796573876,0.0688617566389963
1647770420601370400,5.284370361328125,-0.0006932429611682891,-0.007782105243578552,0.06817490688599645
1647770420611421400,5.29442138671875,-0.016018822386860847,-0.020918211800977585,0.05142981605120003
1647770420621472300,5.30447216796875,-0.025506781700253486,-0.037334143746644254,0.04562978800293058
1647770420631523300,5.3145234375,-0.023899346503615377,-0.02825118503756821,0.03246427268795669
1647770420641574400,5.324574462890625,-0.02827858450114727,-0.00930785350613296,0.023706600410491226
1647770420651625500,5.33462548828125,-0.01544657545685768,-0.002753901818022132,0.00825505651757121
1647770420661676300,5.34467626953125,-0.010223872372508049,-0.0012374328404664992,0.008418722646683453
1647770420671727400,5.354727294921875,-0.011261983248591423,-0.008195435284823178,0.0037736002545803783
1647770420681778400,5.3647783203125,-0.02724807240962982,0.001817716946452856,-0.008886961212940513
1647770420691829500,5.37482958984375,-0.03156535108685493,0.009028378977626561,-0.04529412630777806
1647770420701880600,5.384880615234375,-0.009877250891923903,-0.008489157534390687,-0.0597885886715725
1647770420711930600,5.3949306640625,-0.0031722002953290937,-0.01704458523802459,-0.06359660265240819
1647770420721981400,5.4049814453125,-0.012332242828607558,-0.017948402209952474,-0.06259674142748117
1647770420732032500,5.415032470703125,-0.01490939984023571,-0.030399083786457774,-0.053992177352495486
1647770420742083300,5.425083251953125,-0.025366496446728705,-0.03278122968263924,-0.05385755465477705
1647770420752134400,5.435134521484375,-0.04133738803863525,-0.029889746024832128,-0.04316822019498795
1647770420762185200,5.445185302734375,-0.03183715376555919,-0.04031622829735279,-0.04117690024729818
1647770420772236300,5.455236328125,-0.019191022682189942,-0.03529825400486588,-0.04812565993927419
1647770420782287400,5.465287353515625,-0.011797405299544334,-0.018089418115839362,-0.05351911648064851
1647770420792338400,5.47533837890625,-0.006543138033151626,-0.010065320809930563,-0.06020327041968703
1647770420802389500,5.485389404296875,-0.008795885396003723,0.007403773450478911,-0.06176372466944158
1647770420812440300,5.4954404296875,0.0003197334736585617,0.011352803337201475,-0.045464368308149275
1647770420822491400,5.505491455078125,-0.009866144976019859,0.017603461229801175,-0.022535035880468783
1647770420832542500,5.51554248046875,-0.019288053315877914,0.04492964037694037,-0.003834828922525048
1647770420842593500,5.525593505859375,-0.005671031373739242,0.05765921196006238,-0.0032149799911305307
1647770420852643600,5.5356435546875,-0.007018354329466819,0.06317044966220856,0.014449563776142895
1647770420862694400,5.5456943359375,0.007469020706415176,0.05640745833329856,0.03435465301182121
1647770420872745500,5.555745361328125,0.001437339326739311,0.06373926252610981,0.03280161488354206
1647770420882796500,5.565796630859375,-0.005198737686872482,0.05954246842339635,0.03499368156772107
1647770420892847600,5.57584765625,-0.005551788908243179,0.04748056696876883,0.05004018832370639
1647770420902898400,5.5858984375,-0.01516249781847,0.04065912345089018,0.044607824544049796
1647770420912949200,5.59594921875,-0.020578093126416206,0.03498363509774208,0.05412446196265518
1647770420923000300,5.606000244140625,-0.014764438411593436,0.024381796258315443,0.04243526627793908
1647770420933051400,5.616051513671875,-0.0029489129334688184,0.005022577402368188,0.03493340274784714
1647770420943102500,5.6261025390625,-0.0013169278174638747,-0.007404065711423755,0.012339512819610536
1647770420953152800,5.63615283203125,-0.000014613047242164611,-0.01548376566208899,0.002471870006248355
1647770420963203300,5.646203369140625,0.0008113163828849792,-0.022928747905790803,-0.0006971519513055682
1647770420973253400,5.65625341796875,-0.007779401829838752,-0.025151319326087832,-0.020288937454111873
1647770420983304400,5.666304443359375,-0.013089198675751685,-0.02827953434921801,-0.027026319417729972
1647770420993355500,5.67635546875,-0.015231471401453017,-0.03479797633253038,-0.022910883455537257
1647770421003406600,5.686406494140625,-0.021117022308707236,-0.036786227540299296,-0.028230471043102442
1647770421013457700,5.696457763671875,-0.015618424892425537,-0.03384023721627891,-0.0367289078624919
1647770421023508500,5.706508544921875,-0.0241904384046793,-0.021033801004663108,-0.041476065856963396
1647770421033559600,5.7165595703125,-0.02977788314819336,-0.016313348354026674,-0.03282517842222005
1647770421043610600,5.726610595703125,-0.026075521498918532,-0.010197130496054887,-0.027010610391944644
1647770421053661700,5.73666162109375,-0.029971944415569305,-0.010850918229669331,-0.012668817839212716
1647770421063712500,5.74671240234375,-0.028775428107380867,-0.0069038611043244595,-0.015981486051157116
1647770421073763600,5.756763671875,-0.034579145950078966,0.00747113959826529,-0.007855974197387695
1647770421083814700,5.766814697265625,-0.03331599414646625,0.0032569559693336487,-0.0055893444396555424
1647770421093865700,5.77686572265625,-0.021421558213233948,0.003549363044649362,0.0008464607615023851
1647770421103915500,5.78691552734375,-0.026145664125680923,0.005122676775977015,-0.006637209524773061
1647770421113966600,5.796966552734375,-0.012029460489749908,-0.0013481266733258962,-0.0076896046545356506
1647770421124017400,5.807017333984375,0.0014724106401205062,-0.0018794570710510014,-0.0019006094569340348
1647770421134068500,5.817068359375,-0.0040320319950580595,0.004948416187614203,-0.003141385031957179
1647770421144119600,5.82711962890625,-0.015243161839246748,0.00711253541894257,-0.015806860136613247
1647770421154170600,5.837170654296875,-0.011176058530807494,0.011039937995746731,-0.02434288902003318
1647770421164221400,5.847221435546875,-0.010090601381659507,0.008219692943245172,-0.01863063058676198
1647770421174272500,5.8572724609375,-0.013940262547135353,0.0008292173657566309,-0.019490992009453475
1647770421184323600,5.867323486328125,0.00014846855998039245,0.014065569427236914,-0.03046953694047406
1647770421194374700,5.877374755859375,-0.00374620079100132,0.015245134600624441,-0.030304281642474232
1647770421204425500,5.887425537109375,0.0020773907959461212,0.014490736036747694,-0.023476517981663343
1647770421214476500,5.8974765625,-0.005556465083360672,0.019805574383959173,-0.020263401154056192
1647770421224527600,5.907527587890625,-0.00047872342765331263,0.03296608473025262,-0.009967924850061535
1647770421234577700,5.91757763671875,-0.004828150808811187,0.03371712229326367,-0.009573043780960142
1647770421244628500,5.92762841796875,-0.0005003507375717163,0.026658874344825743,0.0066524436265230176
1647770421254679600,5.937679443359375,-0.0020247838258743286,0.035199908196926116,0.009392463049665093
1647770421264730400,5.94773046875,-0.01613105058968067,0.04759527938961983,0.011891531590092926
1647770421274781400,5.957781494140625,-0.008849076887965202,0.046719957859814164,0.00823406852846965
1647770421284832500,5.96783251953125,0.0017325228810310363,0.017815496545284984,0.010520937356632202
1647770421294883600,5.977883544921875,-0.0012824410259723662,0.007892945206910371,0.01734404310863465
1647770421304934400,5.987934326171875,-0.011330372309684754,-0.007868176091834902,0.01842157267965376
1647770421314985500,5.9979853515625,-0.02136836672127247,-0.017643135653063653,0.004564805431198329
1647770421325036500,6.00803662109375,-0.020782675787806508,-0.008973360854759811,-0.003027111002523452
1647770421335087600,6.018087646484375,-0.021714403679966927,-0.011368804623931646,-0.0010805435120128095
1647770421345138400,6.028138427734375,-0.02187982337474823,-0.030362551168352365,-0.003407342491764575
1647770421355189500,6.038189453125,-0.017092004576325415,-0.040931875977665184,-0.023183416786603628
1647770421365240600,6.048240478515625,-0.03399462406039238,-0.03796856919266283,-0.03205857796389609
1647770421375290600,6.05829052734375,-0.03741933781206608,-0.034539325396344064,-0.03487758090738207
1647770421385341700,6.068341796875,-0.021961071917414664,-0.043230216047912835,-0.03577679476942867
1647770421395392800,6.078392822265625,-0.022819734573364257,-0.022829598380252718,-0.04657875929083675
1647770421405443300,6.088443359375,-0.021297639572620392,-0.018237082958221434,-0.05373321588905528
1647770421415494400,6.098494384765625,-0.013937924459576607,-0.004346723967418075,-0.041724907785188406
1647770421425545500,6.10854541015625,-0.004338905987143516,-0.0030053192958235738,-0.028499369378667323
1647770421435596500,6.118596435546875,-0.010150807136297225,0.009202347305044531,-0.02154235331499949
1647770421445647400,6.1286474609375,-0.01849485711157322,0.025486250368878242,-0.01992260662605986
1647770421455698400,6.138698486328125,-0.025624855121970175,0.02640394973568618,-0.026736761886626482
1647770421465749500,6.14874951171875,-0.012424012765288352,0.03207629628367722,-0.021454766363091765
1647770421475800600,6.158800537109375,-0.006582300999760628,0.03158244835212826,-0.006377079017553478
1647770421485851600,6.1688515625,0.0008966565787792205,0.03326842867769301,0.0013309380765073
1647770421495902500,6.17890234375,-0.017512860336899756,0.03169533414207399,0.013598098045960069
1647770421505952500,6.188952392578125,-0.016460720935463906,0.02083148336559534,0.019050463434029368
1647770421516003600,6.199003662109375,-0.017041151171922682,0.014872574961185454,0.021798940158262847
1647770421526054700,6.2090546875,-0.022410569250583646,0.016077347641065717,0.01038624159367755
1647770421536105700,6.219105712890625,-0.025253683722019193,0.02068776404596865,-0.014744089743308722
1647770421546156500,6.229156494140625,-0.011357844838500022,0.028120544395223258,-0.033887875750288364
1647770421556207600,6.23920751953125,-0.0017944822013378143,0.017142492654547096,-0.04763751109614968
1647770421566258400,6.249258544921875,0.00715162532031536,0.005707344796136021,-0.03255394199909642
1647770421576309500,6.2593095703125,0.00904606076478958,0.004772548164054751,-0.027912783396057784
1647770421586360600,6.269360595703125,-0.017038813084363936,-0.00023205519020557403,-0.03239602975733578
1647770421596411400,6.279411376953125,-0.015261282017827033,-0.0012106178987771271,-0.03086222605248913
1647770421606462500,6.28946240234375,-0.0037894554108381267,0.008546367614343763,-0.006021360915061086
1647770421616513500,6.299513427734375,0.00486029951274395,0.019103855855390428,0.020009535990841685
1647770421626564600,6.309564697265625,-0.020613748961687085,0.0022952713303267956,0.048091045283619314
1647770421636614700,6.31961474609375,-0.0469295089572668,-0.019555618210881948,0.05588632053602487
1647770421646665500,6.32966552734375,-0.06973579952716827,-0.01511464008875191,0.06219849935751408
1647770421656716500,6.339716552734375,-0.05462357059121131,-0.02666815362982452,0.08346753389015793
1647770421666767600,6.349767578125,-0.04123685027360916,-0.03687529406324029,0.10193530206540599
1647770421676818700,6.359818603515625,-0.04677110352516174,-0.04147402003034949,0.08625685408143326
1647770421686869500,6.369869384765625,-0.04641103804111481,-0.026897943797707557,0.08447833663420751
1647770421696920600,6.379920654296875,-0.020437807872891425,-0.025782749097421762,0.10764125862205401
1647770421706971600,6.3899716796875,-0.03917816417813301,-0.05696947613023221,0.16510416255872695
1647770421717022700,6.400022705078125,-0.10091653521060943,-0.11181867217086255,0.22660192976836113
1647770421727073500,6.410073486328125,-0.13364625390172005,-0.1314006669320166,0.23558785784374922
1647770421737124400,6.420124267578125,-0.1044295117676258,-0.11701952874958514,0.22741353841219097
1647770421747175400,6.430175537109375,-0.05691957257390022,-0.08898337470218538,0.20092240358339622
1647770421757226500,6.4402265625,-0.07391103938519954,-0.044567529066279525,0.1385998577211052
1647770421767276500,6.450276611328125,-0.06530278551578521,0.009098667734861373,0.05147781991139054
1647770421777327600,6.46032763671875,0.006794482445716858,0.058000499678403136,-0.031496432302799075
1647770421787378400,6.47037841796875,0.06657704323530196,0.09319069019891321,-0.10581723066582344
1647770421797429500,6.480429443359375,0.09869009133279323,0.1300652536097914,-0.1686466209385544
1647770421807480600,6.49048046875,0.08512684540450573,0.12137611652389169,-0.24247427462292834
1647770421817531600,6.50053173828125,0.050481063959002495,0.004695683535560965,-0.3093369481328875
1647770421827582700,6.510582763671875,0.058849663853645325,-0.04197539368122816,-0.3666532284067944
1647770421837633500,6.520633544921875,0.0640092385739088,0.004385010151192545,-0.4257908058237284
1647770421847684600,6.5306845703125,0.03544423834681511,-0.007474354468658566,-0.46616851851735264
1647770421857735700,6.540735595703125,-0.02189326737821102,-0.05238368270993232,-0.5160399992106482
1647770421867786800,6.550786865234375,-0.033435236611962314,-0.07396028535440563,-0.5317162552375346
1647770421877837600,6.560837646484375,0.014581483060121535,-0.06333082785569132,-0.5181868750462308
1647770421887888400,6.570888427734375,0.052096682462096214,-0.06227415840961039,-0.48094366098605096
1647770421897938400,6.5809384765625,0.058007367810606954,-0.06673873660303652,-0.3978547511499375
1647770421907989500,6.590989501953125,0.01796937193274498,-0.05754245371259749,-0.2498098964743316
1647770421918040600,6.60104052734375,-0.041938861063122744,-0.023747882268950343,-0.10863461704095825
1647770421928091600,6.611091552734375,-0.0835766933530569,0.0721170686405152,0.03040317543968558
1647770421938142500,6.621142578125,-0.07991758632361888,0.13983736362680793,0.11467380587365478
1647770421948193500,6.631193603515625,-0.009428338080644607,0.14819712262786924,0.17123336776243522
1647770421958244600,6.64124462890625,0.04963292269706726,0.10553849592283368,0.21222451791297642
1647770421968295700,6.651295654296875,0.0710720165669918,0.07616853598840534,0.2303747263053432
1647770421978346500,6.661346435546875,0.05621639274060726,0.05165390713065862,0.2553014978942461
1647770421988397600,6.6713974609375,-0.003994038072228432,0.042531493194028734,0.28019385575689376
1647770421998448600,6.68144873046875,-0.053685997480154034,0.0435817328993231,0.3002005970024504
1647770422008499700,6.691499755859375,-0.06782090581655502,0.042380467350780965,0.2886563627463765
1647770422018550300,6.70155029296875,-0.05685118351280689,0.03300422478355467,0.27087604711232705
1647770422028601300,6.711601318359375,-0.03774257841706276,0.05183744700402021,0.2539202178699896
1647770422038651400,6.7216513671875,0.002308276942372322,0.06835398977994918,0.20480008526695892
1647770422048702500,6.731702392578125,0.0055061962008476255,0.08354132977873087,0.15602628188356757
1647770422058753500,6.74175341796875,0.01192132394015789,0.08026596136987209,0.10428909864993766
1647770422068804600,6.7518046875,0.005278817185759544,0.054036929809674616,0.05859788104966283
1647770422078855400,6.76185546875,-0.001821370208263397,0.03018208003491163,0.027634167384076862
1647770422088906500,6.771906494140625,-0.004737549915909767,0.03564567920304835,-0.012851024272013454
1647770422098957600,6.78195751953125,-0.0014957915157079696,0.033111630680784584,-0.016870580377988515
1647770422109008600,6.792008544921875,0.018513561812043187,0.021653978729620573,0.007083053596131503
1647770422119059500,6.8020595703125,0.024907646763324735,-0.004536401320621371,0.015575736528169362
1647770422129110500,6.812110595703125,0.02066460236608982,-0.020131518402695656,0.015167009596806018
1647770422139161600,6.82216162109375,0.013235329148173332,-0.031089769464358687,0.006212463040370494
1647770422149212700,6.832212646484375,-0.007854220631718634,-0.022143808073177933,-0.0214138132981956
1647770422159263500,6.842263427734375,-0.03703706049621105,-0.005878975035995245,-0.03899245061399415
1647770422169314300,6.852314208984375,-0.032547347861528395,-0.009383110699430108,-0.03596252659987658
1647770422179364400,6.8623642578125,-0.020416765084862707,-0.0024321955829858777,-0.034911300513893365
1647770422189415400,6.87241552734375,-0.02007774238884449,-0.0010637567739933728,-0.023240718198101966
1647770422199466500,6.882466552734375,-0.004604278925061225,-0.021407310492172836,-0.007514905674755573
1647770422209517600,6.892517578125,-0.022933131819963454,-0.029967633566632866,0.01848002486862242
1647770422219568400,6.902568359375,-0.03481412374973297,-0.0321389131911099,0.009796294610202311
1647770422229619500,6.912619384765625,-0.04638356551229954,-0.027412761452049017,-0.004580350060202181
1647770422239670500,6.92267041015625,-0.03788111010491848,-0.007128828966617584,-0.010385036017280072
1647770422249721600,6.9327216796875,-0.007960603615641593,0.008244608188793063,-0.009110979227162898
1647770422259772400,6.9427724609375,-0.012307692909240721,0.019646803625673056,0.0007181399404071271
1647770422269823500,6.952823486328125,-0.021279519394040106,0.02183196564503014,-0.006845262784883379
1647770422279874600,6.96287451171875,-0.030548282998800275,0.008141001683846115,-0.0035668804350309073
1647770422289925600,6.972925537109375,-0.011088964769244194,-0.0030331571508198977,-0.02416756898574531
1647770422299976700,6.982976806640625,0.004327215549349785,0.012676233960688113,-0.04412915591532364
1647770422310026500,6.993026611328125,0.01716974598765373,0.03672843293845653,-0.06326810135040432
1647770422320077300,7.003077392578125,0.028776012629270552,0.06059606912955642,-0.04793097761739045
1647770422330128400,7.01312841796875,0.028678397473692892,0.06397796665281057,-0.021491134584415702
1647770422340179500,7.023179443359375,-0.012734393888711929,0.05685206029564142,-0.019685875260736792
1647770422350230500,7.03323046875,-0.03350654828250408,0.036939883732050656,-0.02579743520990014
1647770422360281300,7.04328125,-0.0034013328760862348,0.0004867606036365032,-0.023659144539572297
1647770422370332400,7.05333251953125,0.01563479150533676,-0.01566862070970237,-0.03730382167361677
1647770422380383500,7.063383544921875,0.004125555497407913,-0.025489319108799098,-0.022586345942597834
1647770422390434600,7.0734345703125,-0.007847790890932082,-0.03981785032115876,-0.004826232846360653
1647770422400485600,7.083485595703125,-0.045242578783631325,-0.06597725071124733,-0.012474519109819084
1647770422410536400,7.093536376953125,-0.05595277336835861,-0.07198248247541487,-0.03614803923461586
1647770422420587500,7.10358740234375,-0.0507680642068386,-0.045585327806696295,-0.05949782556407153
1647770422430638600,7.113638671875,-0.05304828409850597,-0.044758886919915676,-0.09935219023702666
1647770422440689700,7.123689697265625,-0.021339725148677824,-0.031382030409201976,-0.10611567475628107
1647770422450739700,7.13373974609375,-0.014906477230787276,-0.025313304954767225,-0.09866671045720576
1647770422460790300,7.143790283203125,-0.0026408698976039886,-0.03406169794723391,-0.10728965043909847
1647770422470841300,7.15384130859375,-0.029892449438571927,-0.04266257222779095,-0.09534741157507523
1647770422480892400,7.163892333984375,-0.04324409844279289,-0.05415032705627382,-0.09329533788347616
1647770422490943500,7.173943603515625,-0.06539689354002476,-0.05030256558693945,-0.06729461692012846
1647770422500994600,7.18399462890625,-0.051285366079211234,-0.06323788887523114,-0.04437845450127497
1647770422511045400,7.19404541015625,-0.03726210142374038,-0.058704337098821995,-0.015815335704013705
1647770422521096400,7.204096435546875,-0.027675357910990715,-0.04078048480823636,0.0013446195419877767
1647770422531147500,7.2141474609375,-0.019420155262947082,-0.021837007146328687,-0.003175469964649528
1647770422541198600,7.224198486328125,-0.019114450314641,0.014137319489195941,-0.012074998398218304
1647770422551249400,7.23424951171875,0.0061240358382463455,0.03958915613181889,-0.029629122327268123
1647770422561300500,7.244300537109375,0.011544307321310043,0.03359101169556379,-0.05110140608074143
1647770422571351600,7.2543515625,0.016475333982706068,0.03655972530804574,-0.07704864329118281
1647770422581401600,7.264401611328125,0.01511632058918476,0.03775324594154954,-0.08427801002282649
1647770422591452700,7.27445263671875,-0.0019534721553325653,0.02744264513365924,-0.0597824877243489
1647770422601503500,7.28450341796875,-0.013314824125170707,0.02147694166228175,-0.048799796341173346
1647770422611554600,7.294554443359375,-0.01627659654021263,0.01928155050985515,-0.024700652949139475
1647770422621605400,7.30460546875,-0.016083704316616057,0.015947583781555294,-0.013245192955061793
1647770422631656400,7.314656494140625,0.0002583586752414703,0.025727950170263646,-0.009389631771761924
1647770422641707500,7.32470751953125,0.004902385088801383,0.025496041110530495,0.007864961221441626
1647770422651758300,7.33475830078125,0.006827215671539306,0.03623779987730086,0.03797589398259297
1647770422661809400,7.344809326171875,0.006343231546878814,0.035237755989283324,0.06588540770933031
1647770422671860500,7.354860595703125,-0.009254150557518005,0.028175270257145165,0.0972867090745829
1647770422681911600,7.36491162109375,0.00015197569131851195,0.029371128978207706,0.11311766247283667
1647770422691962400,7.37496240234375,0.0016208792001008987,0.0353463309302926,0.1166040432838723
1647770422702013400,7.385013427734375,0.0006698620855808258,0.031683424508571624,0.12078960360651834
1647770422712064500,7.395064453125,-0.008092705562710762,0.026486513452604412,0.09242856498630717
1647770422722114600,7.405114501953125,-0.013732172754406928,0.017055033566802737,0.09048915788894518
1647770422732165600,7.41516552734375,-0.02788286318182945,0.004814122283458709,0.0713622316852212
1647770422742216700,7.425216796875,-0.04003741135597229,0.004193433101847768,0.05402392419762909
1647770422752267500,7.435267578125,-0.031198855862021445,0.005497063046321272,0.047103294621594245
1647770422762318600,7.445318603515625,-0.033847909066081046,-0.002521627432107925,0.037707379239518196
1647770422772369400,7.455369384765625,-0.027656068688631057,-0.016631620522961018,0.024693784816935658
1647770422782420500,7.46542041015625,-0.03209785052835941,-0.012004837505146861,-0.002521700497344136
1647770422792471300,7.47547119140625,-0.011574702459573745,-0.019321005737408994,-0.03127699913214892
1647770422802522400,7.4855224609375,-0.010075403812527656,-0.02865772001184523,-0.04337459295466542
1647770422812573400,7.495573486328125,-0.010367080235481262,-0.01851268502920866,-0.05856487382920458
1647770422822624500,7.50562451171875,-0.02395896773636341,-0.007778232786059379,-0.05780738825909793
1647770422832675600,7.515675537109375,-0.030935236489772793,-0.0037780572339892386,-0.042687670136429365
1647770422842726400,7.525726318359375,-0.02935468930006027,0.017368191169202327,-0.0370286214614287
1647770422852777500,7.535777587890625,-0.018172201028466225,0.02744249900318682,-0.03937195145087317
1647770422862828500,7.54582861328125,-0.007129998010396957,0.021306115140020846,-0.04513725524563342
1647770422872878600,7.555878662109375,-0.002241056925058365,0.008289470243826508,-0.049378673941362645
1647770422882929700,7.5659296875,0.0070996028721332545,0.025043036646023392,-0.06233905860567465
1647770422892980500,7.57598046875,0.0006511573851108551,0.03709215168431401,-0.04978687114976346
1647770422903031600,7.586031494140625,-0.00044949733316898343,0.036038185651972886,-0.035555900294054296
1647770422913082600,7.59608251953125,0.011624386820197105,0.01819346301220357,-0.02364869621079415
1647770422923133700,7.6061337890625,0.008588964647054671,0.005295037668198347,0.006217084416560829
1647770422933184500,7.6161845703125,-0.007289572486281395,-0.004238587417826056,0.023470453567057847
1647770422943235300,7.6262353515625,-0.02330488774180412,-0.011261106465756893,0.0059172977523878215
1647770422953286400,7.636286376953125,-0.026006547915935516,-0.02214256596416235,-0.003575593464449048
1647770422963337700,7.646337646484375,-0.0007312368839979171,-0.029936361645534634,-0.011785860992223023
1647770422973388500,7.656388427734375,0.007923194214701652,-0.024313114936277268,-0.011827252448536454
1647770422983439600,7.666439697265625,-0.013973580294847488,-0.021767522106692194,-0.008204568439349531
1647770422993490700,7.67649072265625,-0.03736906892955303,-0.010707783431932329,-0.006696575029194355
1647770423003540500,7.68654052734375,-0.04532967254519462,-0.01982742088958621,-0.0011185739674605428
1647770423013591600,7.696591552734375,-0.039922845065593716,-0.006068213997781276,-0.006850486949272453
1647770423023642600,7.706642578125,-0.021916648253798483,0.013354279352724551,-0.008046035143081099
1647770423033693400,7.716693359375,-0.009733458507061005,0.024065642981231213,-0.002781063819583505
1647770423043744500,7.72674462890625,0.00438099156320095,0.04100852141045034,-0.010813271366711705
1647770423053795600,7.736795654296875,-0.006370119553804397,0.05810096437819302,-0.02322212309548631
1647770423063846700,7.7468466796875,-0.009970774394273758,0.06166084881685674,-0.037538507212325926
1647770423073897700,7.756897705078125,-0.002963525980710983,0.06052329615429043,-0.03974063863279298
1647770423083948500,7.766948486328125,-0.0016606266885995863,0.05593070766702294,-0.0444438296213746
1647770423093999600,7.77699951171875,-0.0006347907721996307,0.03555639348439872,-0.03450491167008877
1647770423104050700,7.78705078125,0.004892448216676712,0.018908552478998898,-0.013296448218263686
1647770423114101800,7.797101806640625,-0.012334580916166306,0.01539163039922714,-0.007193309037573635
1647770423124152600,7.807152587890625,-0.027896307185292242,0.001408478558436036,-0.009144918029382824
1647770423134203600,7.81720361328125,-0.028332360514998434,-0.016571049442142247,0.0022192104194313288
1647770423144253700,7.827253662109375,-0.012017185530066489,-0.021506752278655766,0.020483309248741716
1647770423154304800,7.8373046875,-0.003629296413064003,-0.020366203941404818,0.03543682222533971
1647770423164355600,7.84735546875,-0.01561959393620491,-0.009378361459076404,0.05043042975030839
1647770423174406700,7.85740673828125,-0.0235673380702734,-0.015055749508365988,0.05923572229547426
1647770423184457500,7.86745751953125,-0.022233459118008614,-0.017731252327933905,0.04415041789906099
1647770423194508500,7.877508544921875,-0.027030045744776725,-0.01745557719171047,0.03961503949174657
1647770423204559600,7.8875595703125,-0.018060557347536085,-0.013145605038106441,0.024682660634722558
1647770423214610700,7.897610595703125,-0.005925882917642593,-0.0008289981700479984,0.01643070938969031
1647770423224661500,7.90766162109375,-0.019537059640884397,0.006873904357478022,0.004309606827422976
1647770423234712600,7.917712646484375,-0.022972879308462143,0.01227729777097702,-0.005006174256838858
1647770423244763600,7.927763671875,-0.009947393518686294,0.013294146663323044,-0.013387944160308689
1647770423254814700,7.937814697265625,-0.014435937109589576,0.013231310560181736,-0.02717011180259287
1647770423264865500,7.947865478515625,-0.004245967006683349,0.018776815858110786,-0.03463500432316213
1647770423274916600,7.95791650390625,0.002942483192682266,0.01645575249940157,-0.04133013631394133
1647770423284967700,7.9679677734375,-0.009334230056405067,0.02090418327562511,-0.051232521647121755
1647770423295017700,7.978017822265625,-0.023272154515981674,0.01633621777296066,-0.04527017917660996
1647770423305068800,7.98806884765625,-0.006830722802877426,-0.0026029490400105715,-0.033249066390097136
1647770423315119600,7.99811962890625,-0.008189736196398735,-0.012664178196713328,-0.04241562999570742
1647770423325170400,8.00817041015625,-0.00610942279100418,0.002685731952637434,-0.05282064935509115
1647770423335221500,8.018221435546875,-0.019438859963417054,0.0022613690607249737,-0.031550390979740765
1647770423345272600,8.0282724609375,-0.012551438537240028,-0.012813961930945516,-0.0165855894241482
1647770423355323600,8.03832373046875,-0.009862053322792053,0.001861117696762085,-0.00931744331838563
1647770423365374500,8.04837451171875,-0.014805354943871498,0.018710034232214092,-0.014840243594162165
1647770423375425500,8.058425537109375,-0.013630465945601463,0.007126929270476102,-0.016733327331766485
1647770423385476600,8.0684765625,0.0008387889117002486,0.014144041490927338,-0.015440054384525864
1647770423395527700,8.078527587890624,0.008253449082374572,0.02766162164658308,-0.007484474003873765
1647770423405578500,8.08857861328125,-0.009160042533278465,0.02438946810811758,-0.0030916093397885557
1647770423415629600,8.098629638671875,-0.03075812635719776,0.00595401303358376,0.010253208064846694
1647770423425680600,8.1086806640625,-0.025835283002257344,0.008455255264788866,0.01745314777260646
1647770423435730700,8.118730712890626,-0.02463642860651016,0.0007104132916778325,0.020684293447248637
1647770423445781800,8.12878173828125,-0.021469489008188247,-0.0044768531531095505,0.02127820421978831
1647770423455832800,8.138832763671875,-0.0073883566856384275,-0.0013159049041569233,0.011960085047967731
1647770423465883600,8.148883544921874,-0.015143208596110343,-0.006032558162510394,-0.0008224222987890243
1647770423475934700,8.158934814453126,-0.017971710020303726,-0.006354848919436335,-0.0076558667817153035
1647770423485985500,8.168985595703125,-0.020514964762330053,0.008035057091340421,-0.02300424256110564
1647770423496036600,8.17903662109375,-0.017682956206798554,0.013290420336276292,-0.04315824679024517
1647770423506087400,8.18908740234375,-0.012597615766525268,0.0033563977558165787,-0.05856600634036585
1647770423516138500,8.199138427734376,0.0007394201904535293,-0.007557721903175115,-0.056780072771664705
1647770423526189600,8.209189453125,-0.0010585691422224045,-0.0014538520701229572,-0.04815123277194798
1647770423536240600,8.21924072265625,-0.025451836642622946,-0.0018417554091662168,-0.04463774475827813
1647770423546291700,8.229291748046874,-0.05000234053134918,-0.008959697655588388,-0.04712079374566674
1647770423556342500,8.239342529296875,-0.038331776481866836,-0.008300795355439186,-0.037777814127225424
1647770423566393600,8.2493935546875,-0.023194997626543045,-0.004822232524678111,-0.033540267889015374
1647770423576443600,8.259443603515624,-0.013441665375232696,0.004533186450228095,-0.031236466192360965
1647770423586494700,8.26949462890625,-0.01040156702697277,0.0009426146123558282,-0.017274612867925317
1647770423596545800,8.2795458984375,-0.011850596791505814,0.0062503656316548585,-0.0020021336026489734
1647770423606596600,8.2895966796875,-0.008978256225585938,0.012667612262815237,0.003293415522202849
1647770423616647700,8.299647705078126,-0.016152093377709387,0.009223317027837038,0.013944756059162318
1647770423626698800,8.30969873046875,0.002682370951771736,0.003299114610627293,0.017056750599853693
1647770423636749800,8.319749755859375,0.003091536274552345,0.009865341258421539,0.012209876824263482
1647770423646800600,8.329800537109374,0.001402268013358116,0.015974983245134352,0.01048688895655796
1647770423656851500,8.3398515625,-0.013916297149658202,0.023804069435596466,0.02379959418987855
1647770423666902500,8.349902587890625,-0.0202384859085083,0.014740546079352497,0.02247939670309424
1647770423676953600,8.35995361328125,-0.026851766568422315,0.015400544358044862,0.01686884507862851
1647770423687004700,8.370004638671874,-0.02506663671731949,0.022067454901337623,0.0208751033116132
1647770423697055500,8.380055419921876,-0.02251812127828598,0.011370192863419651,0.0257644279894419
1647770423707106600,8.3901064453125,-0.012327566653490066,0.004934387662261724,0.014701839770469814
1647770423717157600,8.40015771484375,-0.01499649360179901,0.0015082126058638095,0.01154684633826837
1647770423727207700,8.410207763671876,-0.018854338073730468,0.0027020255003124475,-0.006285948401689529
1647770423737258800,8.4202587890625,-0.00850362445116043,0.023307152764126655,-0.002368701892718673
1647770423747309600,8.4303095703125,-0.0025075989067554474,0.02547083360403776,-0.016369462455436586
1647770423757360600,8.440360595703124,0.006318097105622291,0.03183605778701603,-0.005604030552133918
1647770423767411700,8.45041162109375,0.009863806888461113,0.0037205548930913206,0.002643427180871367
1647770423777462800,8.460462890625,-0.009924597164988518,-0.01430325064063072,0.0005710048209875821
1647770423787513900,8.470513916015625,-0.02401566635966301,-0.026301950665935873,-0.006040997197292745
1647770423797564700,8.480564697265624,-0.03688157767355442,-0.02654861890338361,-0.007996040255203842
1647770423807615500,8.490615478515625,-0.031012393379211425,-0.01971986886188388,-0.014007537363376468
1647770423817666600,8.50066650390625,-0.026169045001268387,-0.011595818312838672,-0.019445837693475184
1647770423827717600,8.510717529296874,-0.008314823880791664,0.0021073475427925586,-0.0326621698802337
1647770423837768400,8.5207685546875,-0.00978197382390499,0.006782718942686915,-0.029143128908611832
1647770423847819500,8.530819580078125,-0.003481412374973297,0.01210340250879526,-0.01930383540689945
1647770423857870600,8.54087060546875,-0.005586275699734688,0.009568404138460754,-0.022379187731631098
1647770423867920600,8.550920654296876,-0.013235913670063017,0.03048559302613139,-0.029365192427765575
1647770423877971700,8.5609716796875,-0.011761164942383766,0.035221827767789364,-0.04608323085885495
1647770423888022800,8.571022705078125,-0.01595627854466438,0.035406463619694115,-0.04123644841481
1647770423898073600,8.581073486328124,-0.01669803682267666,0.027065628514811396,-0.027750085381325333
1647770423908124700,8.591124755859376,-0.02297521739602089,0.015384835332259535,-0.016781312925647943
1647770423918175700,8.60117578125,-0.021170213800668716,0.002176174995303154,-0.004795691577624529
1647770423928226800,8.611226806640625,-0.011395254239439963,-0.0035468788266181943,0.009417652289848774
1647770423938277600,8.621277587890624,-0.00954933411180973,-0.005179229268804192,0.01699658137783408
1647770423948328700,8.63132861328125,-0.006223989081382751,0.007806947423890233,0.025193057842273263
1647770423958380300,8.64138037109375,-0.011749474504590034,0.003986147026717663,0.023560305541288105
1647770423968431400,8.651431396484375,0.0038134208083152768,-0.003122515934705734,0.00978743545031175
1647770423978482200,8.661482177734374,0.005590367352962493,0.003189151430130005,-0.003935311888623982
1647770423988533200,8.671533203125,-0.0025268881291151046,0.010549597195535897,-0.01621176940938458
1647770423998584300,8.681584228515625,-0.014963175854086875,-0.001683496107533574,-0.0039767398775555195
1647770424008635400,8.691635498046875,-0.020647066709399222,0.003134060242027044,-0.002350490382593125
1647770424018685200,8.701685302734376,-0.02286357371509075,0.0008929302517324685,0.007885382954962552
1647770424028736000,8.711736083984375,-0.027615736678242683,-0.0036197979323565957,0.000037153672613203525
1647770424038787000,8.721787109375,-0.01756020660996437,-0.003435965798050165,-0.002179408132005483
1647770424048838100,8.731838134765624,-0.0007902735948562622,0.005808613213524222,-0.021435988597385585
1647770424058889200,8.74188916015625,-0.009624152913689612,0.01180690378025174,-0.02729647812861949
1647770424068940300,8.751940185546875,-0.009506079491972923,0.014925912583619355,-0.026886655218712984
1647770424078991000,8.7619912109375,-0.010600304469466209,0.017679668271169065,-0.029986758392211047
1647770424089042200,8.772042236328126,-0.01975216369628906,0.0046737639646977185,-0.010760755728185176
1647770424099093200,8.78209326171875,-0.019323709151148796,0.005880655536428093,-0.016050678829848765
1647770424109144300,8.792144287109375,-0.010037409889698028,-0.003210413413867354,-0.020800741167459634
1647770424119195100,8.802195068359374,-0.009871990194916724,-0.017722849825769663,-0.013535700334236025
1647770424129246200,8.81224609375,-0.0032727380603551864,-0.01990925395414233,-0.016467223741486667
1647770424139297300,8.82229736328125,-0.01495382350385189,-0.02008760619573295,-0.014818214425444603
1647770424149348400,8.832348388671875,-0.017812720066308973,-0.012017112464830278,-0.012825031314231454
1647770424159398100,8.842398193359376,-0.023684826970100402,-0.009113207716867328,-0.023885427576117217
1647770424169449200,8.85244921875,-0.014432429978251456,-0.004205488865822554,-0.0196497993003577
1647770424179500000,8.8625,-0.006204115337133408,0.0008532558284699916,-0.009495448500104248
1647770424189551000,8.872551025390624,-0.011276011773943901,0.0021510405540466305,-0.004067194639984518
1647770424199602200,8.882602294921876,-0.01768821690380573,0.016443404474481938,0.0059227776451036334
1647770424209653200,8.8926533203125,-0.018863690423965452,0.026945509266480802,0.020215981815755367
1647770424219704000,8.9027041015625,-0.019893617993593214,0.012634805971756577,0.022028584195673464
1647770424229755100,8.912755126953124,-0.00807400086224079,0.006103869833052158,0.025112868745531886
1647770424239806200,8.92280615234375,-0.0022504092752933503,0.010870134386792778,0.018094167356193066
1647770424249857300,8.932857177734375,0.00012684125006198882,0.01375723413042724,0.02217168246079236
1647770424259908000,8.942908203125,-0.019461656317114828,0.011611088947206735,0.02705682415384799
1647770424269959200,8.952959228515626,-0.01929331401288509,0.010919161160290241,0.008089161898754537
1647770424280010200,8.96301025390625,-0.02706687062382698,0.01471606922522187,0.008123466027155518
1647770424290061300,8.973061279296875,-0.0035720132678747174,0.013584288716316222,-0.004489493438974023
1647770424300111000,8.983111083984374,-0.0008826280534267425,0.009989990551397205,-0.015278708076663315
1647770424310162200,8.993162109375,-0.0040296939074993135,0.0033481413841247557,-0.031051775541529058
1647770424320213000,9.003212890625,-0.006592822393774986,-0.006766060068830847,-0.035407687462400646
1647770424330264000,9.01326416015625,-0.0027238720059394833,-0.006060176821798086,-0.04971504802256822
1647770424340315100,9.023315185546876,-0.020858663633465765,-0.00275375568754971,-0.05502530152620747
1647770424350366200,9.0333662109375,-0.025073650979995726,0.004203589169681072,-0.04727455953527242
1647770424360417000,9.0434169921875,-0.016692776125669478,-0.0012980039212852716,-0.026815160885080694
1647770424370468000,9.053468017578124,-0.010240238985419273,-0.015945757150650025,-0.014855148902349173
1647770424380519200,9.063519287109376,-0.023547464326024056,-0.00037475159652531145,-0.006195676302351057
1647770424390570200,9.0735703125,-0.027725042271614073,0.010531842343136668,0.013542440602276473
1647770424400621000,9.08362109375,-0.02874211035966873,0.009550064764171837,0.02512415732452646
1647770424410672000,9.093672119140624,-0.0162953012406826,0.013995426800474524,0.03236254761284217
1647770424420723200,9.10372314453125,-0.007898059773445128,0.020618132875859736,0.03560297257248312
1647770424430774300,9.113774169921875,0.00587853664457798,0.020310382100939748,0.031047884817700832
1647770424440825300,9.123825439453125,-0.002498246556520462,0.02339709606990218,0.023365330958459524
1647770424450875400,9.13387548828125,0.00003565583527088165,0.017298852260038255,0.018866357305087147
1647770424460926000,9.143926025390625,0.004645195457339287,0.006762406807020306,0.014240542401652782
1647770424470977000,9.15397705078125,0.00073415949344635,0.003921338162198662,0.0012985336442478
1647770424481028000,9.164028076171874,-0.01244680911898613,0.005744315805658698,-0.011689926337078212
1647770424491079200,9.1740791015625,-0.019055413603782653,0.01295731592439115,-0.03831566559728235
1647770424501130000,9.1841298828125,-0.014894786792993544,0.01905446375571191,-0.049295617034099994
1647770424511181000,9.19418115234375,-0.0048953708261251444,0.0023323154050856826,-0.05351122543513775
1647770424521232100,9.204232177734376,-0.014649287599325178,-0.0026250147413462398,-0.04955910854218527
1647770424531283200,9.214283203125,-0.017836100941896436,0.016366759041696786,-0.056894894790370014
1647770424541334300,9.224334228515625,-0.02371580663025379,0.013128069381415843,-0.047405912563670424
1647770424551385000,9.234385009765624,-0.026744214540719985,-0.006220701145753264,-0.04042613667892292
1647770424561436200,9.244436279296876,-0.0234539408236742,-0.011320654633268713,-0.026172497333679347
1647770424571487200,9.2544873046875,-0.037514030358195304,-0.0025669278785586357,-0.02899613991966471
1647770424581538300,9.264538330078125,-0.02537760236263275,-0.0036542116586118934,-0.014865067508164792
1647770424591589000,9.274589111328124,-0.01428805307149887,0.01832972967773676,-0.012422496661636978
1647770424601639200,9.28463916015625,-0.013546294793486595,0.008424275604635477,0.0014905125523917376
1647770424611690200,9.294690185546875,-0.012815057909488677,0.004097571511939168,0.01490879705203697
1647770424621741000,9.304740966796874,-0.010880290454626082,-0.01851378100775182,0.023546112619154153
1647770424631792000,9.314792236328126,-0.025104630640149114,-0.03308737302236259,0.02345339283440262
1647770424641843200,9.32484326171875,-0.03196984023451805,-0.026377573185414074,0.02076687543047592
1647770424651894000,9.33489404296875,-0.029532383954524993,-0.030308263697847723,0.020895634642988443
1647770424661945000,9.344945068359374,-0.02497720486819744,-0.0114704383675009,0.02810591308167204
1647770424671996200,9.35499609375,-0.028059973314404487,0.008495295014232396,0.029338322687149046
1647770424682047200,9.365047119140625,-0.012300678646564483,0.00132094640545547,0.02197394966529682
1647770424692098000,9.37509814453125,0.0005962123274803161,0.008164163363724946,0.006047755731642246
1647770424702149000,9.385149169921876,-0.0016460136413574218,0.02611351542174816,-0.002892141244933009
1647770424712200200,9.3952001953125,-0.00537701686322689,0.02564670162759721,-0.009923866512626408
1647770424722251300,9.405251220703125,0.0007645546317100524,0.01685015864446759,-0.018402173859439788
1647770424732302000,9.415302001953124,-0.01763034923672676,0.02326031794771552,-0.01386794622959569
1647770424742353200,9.425353271484376,-0.020906009906530378,0.03612644845731556,-0.013662523317988961
1647770424752403200,9.4354033203125,-0.025974399212002754,0.038983664519339795,-0.014951156622730194
1647770424762454300,9.445454345703125,-0.010535422539710997,0.039676761350035665,-0.011417667000647634
1647770424772505300,9.45550537109375,0.007585340562462807,0.018904606956243512,-0.010005060256365685
1647770424782556200,9.46555615234375,0.009541735327243804,0.010980974350124597,-0.006991996045503765
1647770424792607000,9.47560693359375,0.0077425769507884976,0.015417787753790616,-0.025362916250154376
1647770424802658000,9.485657958984374,-0.010513210707902908,0.009982172571122645,-0.022309410431049764
1647770424812709000,9.495709228515626,-0.0003442833930253982,-0.004522591990977525,-0.02939761512633413
1647770424822760200,9.50576025390625,-0.005604395878314972,-0.009302008287236095,-0.03252703572586178
1647770424832811000,9.51581103515625,-0.0183475575953722,-0.005215615756437182,-0.029653599181398746
1647770424842862000,9.525862060546874,-0.01776537379324436,-0.008943331042677163,-0.024488179242238402
1647770424852913200,9.5359130859375,-0.017766542837023735,0.0020401275254786013,-0.0184181203472428
1647770424862964200,9.545964111328125,-0.025833529436588287,0.005650280846655369,0.005075805426947772
1647770424873015000,9.55601513671875,-0.018625205492973328,0.000021846505627036094,0.005112630305998027
1647770424883066000,9.566066162109376,-0.025183541095256803,0.003533288692682981,-0.011246164624951779
1647770424893117200,9.5761171875,-0.017992752808332443,0.0020346476327627898,-0.028078550150711087
1647770424903167200,9.586167236328125,0.003682487905025482,-0.0029779198322445154,-0.03227527118818834
1647770424913218300,9.59621826171875,-0.00009235445857048034,-0.0015622078154236077,-0.03482910212315619
1647770424923269400,9.606269287109376,-0.01104863275885582,0.007233823711052537,-0.018940134927351027
1647770424933320200,9.6163203125,-0.019741057780385016,0.007130655597522855,0.001433065010420978
1647770424943371000,9.62637109375,-0.02034428437054157,0.006262348330393433,0.014633140182122587
1647770424953422000,9.636422119140626,-0.026603929287195204,0.001515446064248681,0.024561719402484593
1647770424963473400,9.646473388671875,-0.018923311656713484,0.004349427381157875,0.032499490131810305
1647770424973524200,9.656524169921875,-0.014998831689357757,0.013480536080896853,0.03167631891435012
1647770424983575300,9.6665751953125,0.0032779987573623654,0.018777984901890157,0.02961054549096152
1647770424993626400,9.67662646484375,-0.0004717091649770736,0.01760375349074602,0.019919391755666583
1647770425003677400,9.686677490234375,0.003674889120459556,0.01564253642037511,0.022056001925561577
1647770425013728300,9.696728271484375,-0.007754267388582229,0.00868745658546686,0.005042250217217952
1647770425023779300,9.706779296875,-0.018435820400714873,0.005050196061655879,-0.0035430246354080735
1647770425033830400,9.716830322265626,-0.014882511833310127,0.0008707184199243783,0.007102233220636844
1647770425043881500,9.726881591796875,-0.02342120759785175,0.002143807095661759,0.0002297536352649331
1647770425053931500,9.736931640625,-0.02790039883852005,0.007015943176671862,-0.0017701514776796102
1647770425063982600,9.746982666015626,-0.02353460484445095,0.0026391893971711394,-0.012603826311603188
1647770425074033200,9.757033203125,-0.02799976755976677,-0.0016637684937566518,-0.031390177183039485
1647770425084084200,9.767084228515625,-0.01482347512245178,0.0008958528611809015,-0.039077133222762496
1647770425094135300,9.77713525390625,-0.005693827727437019,-0.0018719313517212867,-0.04372464850135147
1647770425104186400,9.787186279296876,0.004018003469705582,-0.016257599578797816,-0.0508426455467008
1647770425114237200,9.7972373046875,-0.008866612544655799,-0.001076104798913002,-0.04904480234449729
1647770425124288300,9.807288330078125,-0.009632920742034912,-0.0050142479654401535,-0.035847467119153584
1647770425134339300,9.81733935546875,-0.012183774268627165,-0.012822802824527024,-0.03593576645711437
1647770425144390400,9.827390380859375,-0.022946575823426244,-0.013266381873562931,-0.017695797422062606
1647770425154441500,9.83744140625,-0.036274843952059745,-0.007900324795767664,-0.010712203878723084
1647770425164492300,9.8474921875,-0.02428454642891884,0.002678644624724984,-0.010247253248095512
1647770425174543400,9.85754345703125,-0.01870879212319851,0.0002310322768986225,-0.0010757029401138425
1647770425184594400,9.867594482421875,-0.014807108509540557,0.01021963458880782,-0.0010365765061229467
1647770425194645500,9.8776455078125,-0.0047691140979528425,0.021264979412034153,-0.006757255707867443
1647770425204695600,9.887695556640624,-0.0059761518001556395,0.02985613601617515,-0.004540858300030232
1647770425214746400,9.897746337890625,0.0002951835542917251,0.01637939932756126,-0.0024177103999070823
1647770425224797400,9.90779736328125,-0.0055716626524925225,0.006419657783955335,0.004612261302117258
1647770425234848300,9.91784814453125,-0.01459258897602558,0.007894041185453534,0.005978252425696701
1647770425244899300,9.9278994140625,-0.0244996504843235,0.004953019297495484,0.005937555089127272
1647770425254950400,9.937950439453125,-0.029290976414084433,0.005979293605312705,0.007250172057654708
1647770425265001200,9.948001220703125,-0.01445931798517704,0.0025764994245022536,0.023786241517961024
1647770425275052300,9.95805224609375,-0.014586743757128715,0.010078691748157143,0.018320596523210404
1647770425285103400,9.968103271484376,-0.018760230049490928,0.01620396969541907,0.0005590038559399545
1647770425295154400,9.978154541015625,-0.004997077634930611,0.016586173946037886,0.001298716307338327
1647770425305205200,9.988205322265625,-0.007999182060360908,0.008062675750628114,0.004705456010904163
1647770425315256300,9.99825634765625,0.0016805004328489302,0.008524448043480515,-0.008625332868378608
1647770425325307400,10.008307373046875,-0.018119009536504745,0.014797098572179675,-0.021035992961749433
1647770425335358500,10.0183583984375,-0.018475567889213562,0.013102204287797212,-0.029732710565906015
1647770425345409300,10.0284091796875,-0.027650807991623876,0.0018351064726710318,-0.02815585317062214
1647770425355459300,10.038459228515626,-0.018242343655228612,0.00126059452034533,-0.039003684394061565
1647770425365510400,10.048510498046875,-0.01929331401288509,-0.008082257233932614,-0.03724522335417568
1647770425375561500,10.0585615234375,-0.029903555354475975,-0.012989976084977388,-0.031348347335308786
1647770425385612500,10.068612548828124,-0.02855097170174122,0.002112023717910051,-0.03084116499815136
1647770425395663400,10.078663330078125,-0.0291442614197731,0.006252411458268761,-0.0352797867664136
1647770425405714200,10.088714111328125,-0.027170915520191193,-0.00010660217963159083,-0.016144969517178833
1647770425415765200,10.09876513671875,-0.008888239854574202,-0.0023852146361023185,-0.01759306769995019
1647770425425816300,10.10881640625,-0.008417115211486815,-0.0023560616068542,-0.011099851489439606
1647770425435867400,10.118867431640625,-0.014841595301032065,0.007179828501492738,-0.01994165838640183
1647770425445918200,10.128918212890625,-0.010352467188239097,0.015130787505954504,-0.002525810416880995
1647770425455969300,10.13896923828125,-0.003481412374973297,-0.006605024288222194,0.027107202634215354
1647770425466020400,10.149020263671876,-0.016364274823665616,-0.015641440441831946,0.031155108051840213
1647770425476071400,10.159071533203125,-0.019961422532796858,-0.0221523567058146,0.033388602724950756
1647770425486122500,10.16912255859375,-0.025337270352244375,-0.02364829435199499,0.01693838491719216
1647770425496173300,10.17917333984375,-0.03561901039183139,-0.010901187112182378,0.011860241402685642
1647770425506224400,10.189224365234375,-0.028397826966643332,-0.009615823476761579,0.00875429301029071
1647770425516274400,10.1992744140625,-0.021163199537992478,0.005713847602158785,0.009106924106553196
1647770425526325500,10.209325439453124,-0.0028618191719055174,0.011886983279138803,0.012384941130224614
1647770425536376600,10.21937646484375,-0.00388473247885704,0.011577186677604913,-0.0011864881045185029
1647770425546427400,10.229427490234375,-0.010891396370530129,0.015569032792747019,-0.017949826982058582
1647770425556478200,10.239478271484375,-0.0005611410140991211,0.0357560807749629,-0.026771486140135674
1647770425566529300,10.249529296875,-0.003112579062581062,0.03918722426742315,-0.03245329463621601
1647770425576580400,10.259580322265625,0.010934650990366935,0.04081263351216912,-0.03154292005933821
1647770425586631400,10.26963134765625,0.007313537883758545,0.026034166575223207,-0.02827894982732832
1647770425596682200,10.27968212890625,-0.00978898808658123,0.02561908296830952,-0.03624916152153164
1647770425606733300,10.2897333984375,-0.0267260943621397,0.02466916183233261,-0.03756910327998921
1647770425616784400,10.299784423828125,-0.006541968989372253,0.00029430677145719526,-0.031364385154657067
1647770425626835500,10.30983544921875,-0.019710662642121315,-0.005254267266392707,-0.01079202764928341
1647770425636886300,10.31988623046875,-0.027339842346310615,0.006189867616072296,-0.0088332034653984
1647770425646937300,10.329937255859376,-0.01655541348159313,-0.0010886720195412635,-0.008952318066731095
1647770425656988400,10.339988525390625,-0.00682137045264244,-0.007636413162574172,-0.0032147973280400037
1647770425667038500,10.35003857421875,-0.002024199303984642,-0.00043210780695080754,-0.009354870985634624
1647770425677089500,10.360089599609376,-0.009072948771715163,0.0006074643738567829,-0.023310513764992356
1647770425687140400,10.370140380859375,-0.023315993657708166,-0.0010801233869045972,-0.024741167622618375
1647770425697191400,10.38019140625,-0.02871113069951534,-0.000356339157000184,-0.02687185950838029
1647770425707242500,10.390242431640624,-0.023469138392806052,-0.002053936855122447,-0.004895425625052303
1647770425717293300,10.400293212890626,-0.02734568756520748,0.0035530163064599034,0.01068544373596087
1647770425727344400,10.410344482421875,-0.0137029466599226,0.005843976787850261,0.01007854561768472
1647770425737395200,10.420395263671875,-0.01831482436954975,-0.009411460011079906,0.0017724530326202511
1647770425747446300,10.4304462890625,-0.009463993915915488,0.001655073730647564,-0.005393712269701064
1647770425757497300,10.440497314453125,-0.001359013393521309,-0.0027585049279034136,-0.014810725238732992
1647770425767548400,10.45054833984375,-0.0001607435196638107,-0.005555003778636455,-0.02376306157177314
1647770425777599200,10.46059912109375,-0.008089198431372641,-0.0018217355344444513,-0.03077062051258981
1647770425787650300,10.470650390625,-0.005111643925309181,-0.008149696446955203,-0.02155344096459448
1647770425797701400,10.480701416015625,-0.008560323074460028,-0.009395458724349737,-0.018875727921631186
1647770425807752400,10.49075244140625,-0.020374094986915586,-0.001830064971372485,-0.020719857950974255
1647770425817803300,10.50080322265625,-0.013771920242905616,0.002904123943671584,-0.014483740040380506
1647770425827853600,10.510853515625,-0.010605565166473388,0.0010420563988387584,-0.004900485392659902
1647770425837904400,10.520904296875,0.0030436054795980453,0.0005837912373244762,0.02119933029729873
1647770425847955500,10.53095556640625,-0.010704349365830422,0.0035080081209540367,0.01828187194801867
1647770425858006500,10.541006591796876,-0.018193828338384628,0.004991963068395853,0.01748911413513124
1647770425868057600,10.5510576171875,-0.00682487758398056,0.01308072310835123,0.03112955348547548
1647770425878108200,10.561108154296875,0.004819967502355575,0.013419234347715973,0.03992078097267076
1647770425888159200,10.5711591796875,0.0016506898164749145,0.017409838353842497,0.04201388079440221
1647770425898210300,10.581210205078126,-0.006904372560977936,0.027051234663277864,0.027586729779466985
1647770425908261400,10.591261474609375,-0.014857377392053603,0.02061564865782857,0.022355532861407845
1647770425918312200,10.601312255859375,-0.02131985140442848,0.016792729368805884,0.010979933170508592
1647770425928363300,10.61136328125,-0.01954524294734001,0.020229206623509525,-0.005860708726942539
1647770425938414300,10.621414306640625,-0.0036848259925842284,0.012759893656149506,-0.011233396474923938
1647770425948465400,10.63146533203125,0.0009749825119972228,0.010154825724288821,-0.027170878987573085
1647770425958516200,10.64151611328125,-0.01862462097108364,0.01248772565126419,-0.041732597901299594
1647770425968567000,10.651567138671876,-0.01879354779720306,0.0090920918636024,-0.0443158375938423
1647770425978617000,10.6616171875,-0.01865384706556797,0.0019289953012019394,-0.04734389844443649
1647770425988668200,10.671668212890625,-0.010107552516460418,-0.014594561737403273,-0.048383708087261765
1647770425998719200,10.68171923828125,-0.009189853149652481,-0.009344532254710793,-0.0332248269979842
1647770426008770300,10.691770263671875,-0.023545710760354995,-0.010145400308817625,-0.04511982918679714
1647770426018821000,10.701821044921875,-0.025638299125432966,-0.009859057648107409,-0.03397400139747187
1647770426028872200,10.7118720703125,-0.019499650239944457,-0.0022590309731662273,-0.019089918661583213
1647770426038923300,10.72192333984375,-0.020239070430397986,0.003492445225641131,-0.023761198408249765
1647770426048974300,10.731974365234375,-0.0009340659797191619,0.0021499445755034682,-0.014883041556272654
1647770426059025400,10.742025390625,-0.0015367080479860304,0.003601896949484944,-0.0014401158057153224
1647770426069076000,10.752075927734374,-0.012767711636424064,0.006173208742216229,0.015343060283455997
1647770426079127000,10.762126953125,-0.009178747233748435,0.006702931704744696,0.025952077782340346
1647770426089178000,10.77217822265625,-0.01844458822906017,0.003833513748273253,0.04040496602673083
1647770426099229200,10.782229248046875,-0.009760931035876273,0.00726348819695413,0.040740079732611775
1647770426109280000,10.792280029296874,-0.011826046872138977,0.02265241518244147,0.031020996810775248
1647770426119331000,10.8023310546875,-0.09723112469613551,0.33478374327421184,-0.04514797756904736
1647770426129382100,10.812382080078125,0.41062604298293587,0.5671852626994252,-0.3970117609871551
1647770426139433200,10.82243310546875,1.3753975420892237,-0.27421244325973093,0.14081220000833272
1647770426149483300,10.832483154296876,0.0801303522914648,-0.6229265852741896,0.317045915075019
1647770426159534300,10.842534423828125,-1.8036498426556586,-0.37488757092989977,0.0383896076163277
1647770426169585200,10.852585205078125,-1.9129618657678364,-0.030359409363195297,-0.0946198462191969
1647770426179636200,10.86263623046875,-0.5152426017552614,0.2258299590151757,-0.16054185961186884
