time,seconds_elapsed,z,y,x
1647770437331291100,0.012291015625,-0.3953226753890514,-0.5607733498305082,-2.8467981283843518
1647770437341342200,0.02234228515625,0.289428351765871,-1.7006716987401247,-3.169555918300152
1647770437351393300,0.032393310546875,1.8812901316970585,-2.6804917138963935,-3.0395854303017256
1647770437361443300,0.042443359375,3.7065415653079747,-2.0735443496510384,-2.5388673207223413
1647770437371494100,0.052494140625,5.000505271291733,-1.4075895006418226,-1.6925512283876538
1647770437381545000,0.062544921875,5.148385217729211,-1.2126944127902388,-0.22056451276764272
1647770437391596000,0.072595947265625,4.947723529174923,-1.466437118668854,-0.25257789988294244
1647770437401647000,0.082647216796875,4.849095981684327,-0.9543351530268788,-1.0564220471911132
1647770437411698200,0.0926982421875,4.74211444734633,-0.7442372353464365,-0.5432732028447091
1647770437421749000,0.1027490234375,3.937788361740112,-0.9915475700899958,0.977561714835465
1647770437431800000,0.112800048828125,2.5678905861109493,-1.2944897756844758,1.5377048039384185
1647770437441851100,0.12285107421875,0.8012018161058425,-1.2062263858199118,0.9541311548873782
1647770437451902200,0.132902099609375,-0.47638417105078695,-1.052936104771495,0.04372165282666683
1647770437461953300,0.142953369140625,-0.9744856683909893,-1.2875994316488504,-0.897835413300246
1647770437472004000,0.153004150390625,-1.0637310550302266,-1.6969821965724228,-1.4064853387922047
1647770437482055200,0.16305517578125,-0.4244675213307142,-2.1444199668630954,-1.262053194721043
1647770437492106200,0.173106201171875,0.6044137541145086,-2.3947189620286227,-1.1000463771231472
1647770437502157300,0.1831572265625,1.4228876075387,-2.45836667381376,-0.8192368006207048
1647770437512208100,0.1932080078125,2.060527923950553,-2.664030116178095,-0.22313772425651549
1647770437522259200,0.20325927734375,1.6975275554955005,-2.777219857506454,0.0978230992399156
1647770437532310300,0.213310302734375,1.5455676462680101,-2.9225621021598576,0.09943974065631628
1647770437542361300,0.223361328125,1.6827385671645403,-2.8374942934662104,-0.21247984438091516
1647770437552412200,0.233412109375,0.16779986791610718,-2.2968302502065896,-2.0813075309984383
1647770437562463000,0.243462890625,-1.3659820634901523,-1.5844731309846043,-5.321722846028209
1647770437572514000,0.25351416015625,-1.8629741382837295,-1.0828142334237694,-3.03779650105834
1647770437582565000,0.263565185546875,-1.6652087556928394,-1.161424828802049,-0.7981574799738824
1647770437592616200,0.2736162109375,-0.5884329256504773,-1.347910692487657,-0.0839797211959958
1647770437602667000,0.2836669921875,-0.19548048652410507,-1.6318132665693759,0.5465051705032586
1647770437612718000,0.293718017578125,-1.1645406227350235,-1.5516650863602757,2.2213522537656125
1647770437622769200,0.30376904296875,0.16911796477735042,-1.9911884302645921,2.0162987599931657
1647770437632820200,0.3138203125,1.331735510495305,-1.7063073665395379,1.507336992073059
1647770437642871000,0.32387109375,1.4195686922490596,-0.46560792549252505,1.9918214674711225
1647770437652922000,0.333922119140625,2.1433698732882736,1.129251867210865,2.178765742448717
1647770437662972200,0.34397216796875,2.3843700019717216,2.5520155561089513,2.2471558264553546
1647770437673023200,0.354023193359375,1.0979694247186182,2.4434908839821814,1.4023282191127537
1647770437683074300,0.36407421875,0.7771960866183042,-0.09032967474460601,1.6680816807806491
1647770437693125000,0.374125,1.7441472678512333,-2.4654674457296726,2.295445517849922
1647770437703176200,0.38417626953125,1.6816811670660972,-2.6904472907215355,1.3432833249479532
1647770437713227300,0.394227294921875,0.34215807143449783,-1.4048463394135235,0.5258537198796868
1647770437723278000,0.404278076171875,-0.7611252417832612,0.14967895868346096,1.1077087284445761
1647770437733329200,0.4143291015625,-1.6368769796997307,0.7433810569085181,2.0776512004479764
1647770437743380000,0.4243798828125,-2.1923095530241725,0.8146179086484014,2.266688794443011
1647770437753431000,0.43443115234375,-1.6170114187568425,0.45059901080057024,2.438987435083091
1647770437763482000,0.444482177734375,-0.06611702450811863,-0.38160380050763487,2.0750512470826505
1647770437773533200,0.454533203125,1.9438158537149428,-0.8853541173897683,1.2280907193645834
1647770437783584000,0.464583984375,3.1224101362437007,-0.24281886854320764,0.3634901977986097
1647770437793635000,0.474635009765625,2.2385767986804246,0.610321516853571,-0.7043821948200464
1647770437803686100,0.48468603515625,-0.7522030996590853,0.12862141147702932,-1.9354832019165158
1647770437813737200,0.4947373046875,-1.7984879298478365,-1.2154453189335763,-1.1872937218129633
1647770437823788300,0.504788330078125,-0.8280185113608837,-0.8539142923787235,0.6143786832898854
1647770437833839000,0.514839111328125,0.29781916349232196,-0.06521306140571832,1.1386577011987566
1647770437843890200,0.52489013671875,0.4209557138174772,0.1943539667122066,0.8456912384346127
1647770437853941200,0.534941162109375,0.012224690800905227,0.6187229961045086,0.24094839849621055
1647770437863992300,0.544992431640625,0.11860533663630485,1.7295670999653636,-0.004866144731640816
1647770437874043100,0.555043212890625,-0.8460165248662233,1.4065195333227514,0.22894933314472435
1647770437884094200,0.56509423828125,-2.9661563292145727,1.1354165273204446,-0.5600663706049323
1647770437894145300,0.575145263671875,-3.638928749284148,0.5522695792488753,-0.9999810519143938
1647770437904196400,0.5851962890625,-0.09753507607877254,-3.0504101911768315,-1.0018781177073717
1647770437914247200,0.5952470703125,4.467931595507264,-4.667200076137483,-0.3925906200766563
1647770437924298000,0.605298095703125,5.341958993849158,-2.5298630532726643,-0.01109656355381012
1647770437934349000,0.61534912109375,3.8494828862994908,-2.4294211498364806,2.043600754547119
1647770437944400100,0.625400146484375,2.7344857544124124,-2.2948571965679525,3.141380794173479
1647770437954450200,0.6354501953125,1.3709107520639896,-1.5617331836491821,2.585838330733776
1647770437964501200,0.645501220703125,-0.16658581595122812,-0.4881155253767967,1.3206103053689002
1647770437974551300,0.65555126953125,-1.1119628787577152,0.575754865058884,-0.06225859551429748
1647770437984602000,0.66560205078125,-1.496868789550662,0.8257128647670149,-0.025573417195677756
1647770437994653200,0.675653076171875,-1.8101678462475537,0.1300821316793561,1.1243389607280492
1647770438004704300,0.685704345703125,-2.455104749408364,-0.6699676648471504,1.7165464364811778
1647770438014755300,0.69575537109375,-3.7855800307095047,-1.1020127087600529,2.5001015367373824
1647770438024806100,0.70580615234375,-4.817435353529453,-0.6731964907005429,2.375259936060011
1647770438034857200,0.715857177734375,-4.969784554335475,0.05957315582260489,-0.1552501829445362
1647770438044908300,0.725908203125,-5.854336269301176,0.5275019254781306,-1.9763798604503273
1647770438054959400,0.73595947265625,-5.86449175261259,0.7883477413602172,-2.9502345374614
1647770438065010400,0.746010498046875,-4.801791794195771,0.31262641813233494,-3.7087908055394885
1647770438075061200,0.756061279296875,-3.5342923167675733,-0.08712386444061994,-4.209553631043434
1647770438085112300,0.7661123046875,-3.0704052237182853,0.10804331835061311,-4.504882731285691
1647770438095163400,0.776163330078125,-1.0790285774052142,-0.5197741077050566,-4.916469143733382
1647770438105214500,0.78621435546875,0.6200006148248911,-0.7333218735784292,-4.314903180265427
1647770438115265300,0.796265380859375,0.9701385790973901,-1.6142930997088552,-5.330124763670564
1647770438125316400,0.80631640625,1.3535773399472235,-3.0944501161724327,-6.579637333509326
1647770438135367400,0.816367431640625,0.9353016589939593,-2.820502242133021,-6.555986993330717
1647770438145418500,0.82641845703125,2.2231442517489195,-2.913966123250127,-7.203862872552872
1647770438155469000,0.836468994140625,2.394740004816651,-3.028340398187935,-7.768866991820931
1647770438165520100,0.84652001953125,3.1412516148358582,-3.2018542598366735,-7.146435350456834
1647770438175571200,0.8565712890625,4.434978004932403,-3.6833638110771774,-6.838322171965241
1647770438185622300,0.866622314453125,5.111261063471436,-3.552140692669153,-6.838497528532147
1647770438195673300,0.87667333984375,5.131952553844451,-2.8245696377024054,-6.98125764773786
1647770438205724200,0.88672412109375,2.302351643976569,-3.554337910452485,-7.928806209364533
1647770438215775200,0.896775146484375,0.6634598173230886,-3.410862920975685,-8.607346691441535
1647770438225826300,0.906826416015625,-1.2682938426762818,-3.292973331393301,-8.138190718078613
1647770438235877400,0.91687744140625,-2.2239105599462983,-3.35959421377033,-6.050203124794364
1647770438245928200,0.92692822265625,-2.9498078364819285,-3.6356469511345026,-2.757918652448058
1647770438255978200,0.936978271484375,-3.9056443339824676,-3.796547707186639,0.2694166603505611
1647770438266029300,0.947029296875,-5.049285961073637,-3.738941613653302,1.5512684882581234
1647770438276080400,0.957080322265625,-6.381102720111608,-3.7382375570371744,-0.17966741584241389
1647770438286131500,0.96713134765625,-7.134256836885213,-3.752414258688688,-2.663589971195161
1647770438296182300,0.977182373046875,-8.305145367342233,-3.1083243277460335,-3.408803650358319
1647770438306233300,0.9872333984375,-9.93661961121559,-2.5601240437626838,-3.505472464996576
1647770438316284200,0.9972841796875,-10.76487193133235,-2.643938637524843,-3.2744130078300833
1647770438326335200,1.007335205078125,-10.90121867636442,-2.9152415500134228,-2.415465689720213
1647770438336386300,1.01738623046875,-11.564970170110463,-3.213172357186675,-1.1869599598139524
1647770438346437000,1.02743701171875,-13.486909707581995,-3.4451389923259614,0.4565779390797019
1647770438356488200,1.03748828125,-16.505331646084784,-3.3249458019763227,2.2464695977568625
1647770438366539300,1.047539306640625,-18.92087653852105,-2.7080916684836147,4.532414296811819
1647770438376590300,1.05759033203125,-18.88241733626723,-1.3420090672284364,5.9704936282634735
1647770438386641200,1.06764111328125,-15.185919610589742,-0.30141280407011506,5.229221087941527
1647770438396692200,1.077692138671875,-10.321620799076557,0.5113599151030183,3.893942205750942
1647770438406743300,1.087743408203125,-5.94136865606606,0.9041694386273622,3.120644295614958
1647770438416794400,1.09779443359375,-2.6242431724518536,0.9509943181663751,2.7451442188099024
1647770438426845400,1.107845458984375,-0.4843026890903711,1.1376298194557428,2.4393770189225674
1647770438436896300,1.117896240234375,0.9028466655910015,1.5116636231005192,1.8490724541813135
1647770438446947300,1.127947265625,1.9397300457060336,2.16103880096972,1.0726046818375587
1647770438456998400,1.137998291015625,2.8705267944961785,3.19372940557003,0.3418541200518608
1647770438467049500,1.148049560546875,3.4507483566403385,4.214285335740446,-0.28590397703200576
1647770438477100300,1.158100341796875,3.869331496107578,4.999188343474269,-0.7103916643679141
1647770438487151400,1.1681513671875,4.130207707127928,5.617802472376823,-1.111371927127242
1647770438497202400,1.178202392578125,4.450698136633634,6.138110540828109,-1.3825205258369444
1647770438507253200,1.188253173828125,4.950768888220191,6.633364247521758,-1.5423220884755253
1647770438517304000,1.198303955078125,5.395329349508882,7.274933720076084,-1.788624707481265
1647770438527355100,1.208355224609375,5.25471033398509,8.066478650042415,-2.404749942177534
1647770438537406200,1.21840625,4.747753330016136,8.581613699769973,-3.2001120923444626
1647770438547457300,1.228457275390625,4.480195449274778,9.044169836476444,-4.010056310093403
1647770438557508400,1.23850830078125,4.57038366972208,9.844026667714118,-4.389541949403286
1647770438567558400,1.248558349609375,4.928769822379946,10.573284360593556,-4.483984612424671
1647770438577609200,1.258609130859375,5.401482611441612,10.812755964535475,-3.9614118139117953
1647770438587660300,1.268660400390625,5.511292062681913,10.650708961057662,-2.937716708932817
1647770438597711400,1.27871142578125,5.277448235493898,10.315505531066655,-2.1101807203918694
1647770438607762400,1.288762451171875,5.016709971639513,10.354272191834449,-2.3308085076540705
1647770438617813200,1.298813232421875,4.936367437902093,10.598340475916862,-2.9208395161509513
1647770438627864300,1.3088642578125,5.439156800797582,10.84405711172819,-3.2211779689878224
1647770438637915400,1.318915283203125,6.3098576850652695,11.138794091296194,-3.5562890445202586
1647770438647966500,1.328966552734375,7.047752857908606,10.995698456525801,-3.945528016081452
1647770438658017300,1.339017333984375,8.73714503774345,10.501901378381252,-4.299833036905527
1647770438668068000,1.349068115234375,10.601033952784539,10.671537814074753,-3.553615441396832
1647770438678119200,1.359119140625,11.817505838286875,10.957856509387492,-1.783503126683831
1647770438688170200,1.369170166015625,12.09534779715538,10.329086312651633,-0.04208791414499283
1647770438698221300,1.37922119140625,11.463809304749965,8.58780904727876,1.5669886199593543
1647770438708272000,1.389272216796875,10.425415520071983,6.418794445124268,3.8558389773279425
1647770438718323200,1.3993232421875,9.502156181049346,3.393081180569529,5.909688154166936
1647770438728374300,1.409374267578125,8.272977958709001,0.28244857588112354,8.667565890082717
1647770438738425300,1.41942529296875,2.8041046495616433,-2.792000954791903,13.280811965453625
1647770438748476200,1.42947607421875,-7.8877090598225585,-6.118241472753882,19.673720858693123
1647770438758527200,1.43952734375,-21.008123542571067,-7.948757695025205,24.777151082408427
1647770438768578300,1.449578369140625,-32.177046230149266,-7.094315871641039,25.644088230228423
1647770438778629400,1.45962939453125,-38.5165415131092,-5.240287840878963,22.109821047902106
1647770438788680200,1.46968017578125,-39.20070801837444,-5.656474440598488,16.00852544925213
1647770438798731300,1.479731201171875,-33.65425462594032,-7.156322538220882,9.994701213306188
1647770438808782300,1.4897822265625,-25.240798521482944,-8.194211295986175,6.5199804449260235
1647770438818833400,1.49983349609375,-17.80317599289417,-9.263622734740377,5.014245042830705
1647770438828884500,1.509884521484375,-12.223725170743466,-10.262273122572898,4.312254127061367
1647770438838935300,1.519935302734375,-8.158269629511237,-10.85498884010911,3.709243225482106
1647770438848986400,1.529986328125,-4.916743869021535,-10.658996312409638,2.6183704810261723
1647770438859037400,1.540037353515625,-2.1177233908563853,-9.61218424347639,1.2095914783388375
1647770438869087200,1.550087158203125,0.1556909124493599,-7.919678900057077,-0.2255120521724224
1647770438879138300,1.56013818359375,2.0629116042166946,-6.283433203998207,-1.5773738203734158
1647770438889189000,1.570189208984375,3.5108915674358605,-4.984408707493543,-2.71886148430109
1647770438899240200,1.580240234375,4.573413246676325,-3.574462999114394,-3.6346161467820406
1647770438909291300,1.590291259765625,5.3440398917764425,-1.8882909503698349,-4.656372100391984
1647770438919342300,1.60034228515625,5.763266589844227,-0.13343114984631538,-5.579229872876406
1647770438929393400,1.610393310546875,5.882085276970267,1.4644699102491139,-6.236199159136414
1647770438939444200,1.6204443359375,5.878572300413251,2.885124644169211,-7.127460016351938
1647770438949495300,1.630495361328125,5.322098693603277,4.317940940526127,-8.026460527908801
1647770438959546400,1.64054638671875,4.58796111972779,5.665632145044207,-8.880397908902168
1647770438969597400,1.650597412109375,3.8610271936208007,6.719922002512217,-9.493368478959798
1647770438979648800,1.660648681640625,3.183856246331334,7.550179232710599,-9.722100077700615
1647770438989699800,1.670699951171875,2.419446576049924,8.147542483791709,-9.943084423315524
1647770438999751000,1.6807509765625,1.5928987217634916,8.22488232858181,-10.087506922775507
1647770439009802000,1.690802001953125,0.7515329453125595,8.03877114342749,-10.126600915801525
1647770439019852800,1.700852783203125,0.05854074403494596,8.160364555963874,-10.348270321071148
1647770439029904000,1.71090380859375,-0.22153028905987737,8.251592056331038,-10.861540161448717
1647770439039955000,1.720954833984375,-0.06291472133547067,8.087508578589558,-11.272088463020324
1647770439050005800,1.731005859375,0.2523515437811613,7.8825453934490675,-11.768147640877961
1647770439060056600,1.741056640625,0.7955395525604486,7.705841503587365,-12.347992186403275
1647770439070107600,1.751107666015625,1.435491360785067,7.3296063905060285,-12.926191887331008
1647770439080158700,1.76115869140625,2.279310083346069,7.1809034372478715,-12.81022274441719
1647770439090209800,1.771209716796875,3.9537405486315484,7.0799296188920735,-12.837615778255461
1647770439100260600,1.781260498046875,5.8001475829958915,6.238560627570748,-12.75701254775524
1647770439110311700,1.791311767578125,7.705165796282887,3.6388884172737597,-13.168608312553166
1647770439120362800,1.80136279296875,8.634262170895934,-0.6650707596510649,-14.855775802075861
1647770439130413800,1.811413818359375,9.906219796776771,-4.406687145471572,-12.730315094965695
1647770439140465000,1.82146484375,6.918235082113743,-7.314456752169132,-7.9435513585537665
1647770439150515700,1.831515625,-3.018890725058317,-10.967257959461211,-2.4247896906435487
1647770439160566800,1.84156689453125,-15.54006973311305,-13.96958450320959,4.41695018081069
1647770439170616800,1.851616943359375,-28.794918405270575,-12.695790894073248,11.189227808982134
1647770439180668000,1.86166796875,-36.593258744335174,-9.673826752918957,16.672342409449815
1647770439190719000,1.871718994140625,-34.70059790831804,-8.053556624627113,18.09800181978941
1647770439200769800,1.881769775390625,-26.76724002699852,-7.767274754193425,15.581541561186313
1647770439210820600,1.891820556640625,-18.604163873988387,-7.472740019199252,12.801111217200756
1647770439220871700,1.90187158203125,-13.088831596004962,-6.254395325562357,10.745520749652385
1647770439230922800,1.9119228515625,-9.622109425163268,-4.430794581767916,8.594938460767269
1647770439240973800,1.921973876953125,-6.623673459112644,-2.256011917605996,6.100643272221088
1647770439251024600,1.932024658203125,-3.614136837854981,-0.05229658894836902,3.7918496124982832
1647770439261075700,1.94207568359375,-0.6028717853695154,1.9080068737089633,1.930715841384232
1647770439271126800,1.952126708984375,2.2014935609549284,3.3206624255687,0.6982312709748745
1647770439281177900,1.962177734375,4.266552698594332,4.273888448309898,-0.12927227660119534
1647770439291228700,1.972228759765625,5.783758173730969,5.26565784445703,-0.6789011320829391
1647770439301279700,1.98227978515625,6.8761243716150515,6.4807882522225375,-1.1285083553671835
1647770439311330800,1.992330810546875,7.416510182455181,7.619077996891736,-1.7140788773238658
1647770439321382000,2.0023818359375,7.593497565433383,8.295485558593272,-2.181519863462448
1647770439331432700,2.0124326171875,7.825949646002054,8.64838480427265,-2.0986621320337058
1647770439341483800,2.02248388671875,7.95057789618969,8.889720448520778,-1.4712223071187733
1647770439351534800,2.032534912109375,7.369032391965389,9.363343922686576,-1.1796359005361794
1647770439361586000,2.0425859375,6.383358974605798,9.9700975179255,-1.256521571817994
1647770439371637000,2.052636962890625,5.924835454416274,10.573597664326428,-0.930996070754528
1647770439381687800,2.062687744140625,6.231261118212342,11.375167729222774,-0.16907003398239612
1647770439391739000,2.07273876953125,6.661951459580659,12.387359735673666,0.5622855079591274
1647770439401790000,2.0827900390625,6.792526050952077,13.288306705123185,1.0918319448769092
1647770439411840800,2.0928408203125,6.543916616308689,13.974331989997625,1.4338210894852876
1647770439421891600,2.1028916015625,6.240967104190587,14.493747493523358,1.761587647473812
1647770439431942700,2.112942626953125,6.327562853103876,14.733616572350263,2.433215573683381
1647770439441993700,2.12299365234375,6.734796915560961,14.28887374023199,3.1783719697013497
1647770439452044800,2.133044921875,7.515662046080827,13.214343643289803,2.6956916211158037
1647770439462095600,2.143095703125,9.437615612077712,12.126201200580596,2.198065047810972
1647770439472146700,2.153146728515625,11.915061372631788,11.175406204378604,1.8960145303592084
1647770439482196700,2.16319677734375,13.97755036752224,9.980006332999467,0.9919827466368675
1647770439492247800,2.173247802734375,14.9178111102283,8.081627703857421,0.24031828389912843
1647770439502299000,2.183298828125,12.373610611784457,5.710635069853067,2.1813328164577483
1647770439512350000,2.193349853515625,5.1434804945528505,3.122846189573407,7.4369351308465
1647770439522400800,2.20340087890625,-5.049097160503268,0.5656704742223024,13.967861332678794
1647770439532451800,2.213451904296875,-16.302896518117187,-1.0139671994298696,20.582198808169363
1647770439542503000,2.2235029296875,-27.53691039428711,-2.1180916396468876,25.95224817047119
1647770439552554000,2.233553955078125,-35.07671202536821,-3.8160727841287847,26.91934665122032
1647770439562604800,2.243604736328125,-34.10235845892429,-5.438708472508192,23.081135100519656
1647770439572655600,2.253655517578125,-27.052147686469553,-6.354450860029458,17.883396946078538
1647770439582706700,2.263706787109375,-19.147668693631886,-6.9729135977625845,12.427459106349945
1647770439592757800,2.2737578125,-12.172637957584858,-7.323213474598527,7.996807732445001
1647770439602808800,2.283808837890625,-6.507405625513195,-6.844769448408484,4.653339308567345
1647770439612859600,2.293859619140625,-1.8866104499369858,-6.070392510864139,1.9872163117632269
1647770439622910700,2.30391064453125,1.7639800955682992,-5.626501911661029,-0.10335136114209889
1647770439632961800,2.3139619140625,3.906674846073985,-5.175576591515541,-1.6071192625567317
1647770439643012900,2.324012939453125,4.317498457455635,-4.324299954164028,-2.504868605008721
1647770439653063700,2.334063720703125,3.6676597537279125,-3.4200358229905365,-2.892189760249853
1647770439663114800,2.34411474609375,2.684623699134588,-2.6176094335258004,-3.2030235958769917
1647770439673165800,2.354165771484375,2.1099796448618173,-1.9032810142308472,-3.6866575919255613
1647770439683217000,2.364216796875,1.9944769504159687,-1.2243342894405125,-4.459859055949748
1647770439693267700,2.374267822265625,2.1467069087564945,-0.9447574696034192,-5.505950701653957
1647770439703318800,2.38431884765625,2.572164025646448,-1.0154258738055824,-6.973018811702728
1647770439713369900,2.394369873046875,3.3052854082167147,-1.2090835288167,-8.509054659515618
1647770439723421000,2.4044208984375,4.406293762239813,-1.38491589654088,-9.644764324563742
1647770439733471700,2.4144716796875,5.454754767423868,-1.364061324560642,-10.290549953508377
1647770439743522800,2.424522705078125,6.186327751508355,-1.0677788691163062,-10.512001916635036
1647770439753574000,2.434573974609375,6.903418036732077,-0.5820528692245484,-10.636695633274316
1647770439763625000,2.444625,7.566244816848635,-0.24841478885412216,-10.786160218554734
1647770439773675800,2.45467578125,8.090187442409992,-0.10210662177801132,-10.600686746782063
1647770439783725800,2.464725830078125,8.201500868472456,-0.08300503094494342,-9.696602648350597
1647770439793776600,2.474776611328125,7.685069933715463,-0.5654974557429552,-8.378181377458572
1647770439803827700,2.48482763671875,6.241152982151508,-1.3501426893234252,-7.230770168700814
1647770439813878800,2.494878662109375,4.318964438354969,-2.1219453924655913,-6.30474721018374
1647770439823929900,2.504929931640625,2.6001661312937734,-3.123687316572666,-5.817674471858144
1647770439833980700,2.514980712890625,0.8699187939792871,-4.444800895288586,-5.5514171523213385
1647770439844031700,2.52503173828125,-1.1466028149843215,-6.060715166458487,-4.85461094571352
1647770439854082800,2.535082763671875,-4.626137705647945,-8.02059134361446,-3.614124562895298
1647770439864134000,2.5451337890625,-10.106797314178943,-10.501803178703785,-1.5344067853063343
1647770439874185000,2.55518505859375,-16.292273417294023,-13.152013736104964,1.7565797561839223
1647770439884235800,2.56523583984375,-21.458345682883262,-14.92853357977271,6.167920572680234
1647770439894286800,2.575286865234375,-25.377649124383925,-14.934457124602794,11.317482432973383
1647770439904338000,2.585337890625,-27.953485116541383,-13.446686418265104,15.45438934547901
1647770439914389000,2.595388916015625,-26.644448344588277,-10.885351245146989,16.631333522713184
1647770439924439800,2.605439697265625,-21.26748291928768,-8.258474217060208,16.004433796024323
1647770439934490600,2.61549072265625,-15.221513486540317,-5.9931771692365405,15.630079089862107
1647770439944541700,2.625541748046875,-10.376563518619538,-3.5442432174175975,15.153747525781393
1647770439954592800,2.6355927734375,-6.551845071220398,-0.7951362324565648,13.535661171269416
1647770439964643800,2.645643798828125,-3.2532144447177647,2.4229846870481966,11.102994463640451
1647770439974694400,2.6556943359375,-0.49722003833055495,5.634861159205436,7.751454669249057
1647770439984745500,2.665745361328125,1.5910592313766478,8.1187799151659,4.243379912799597
1647770439994796500,2.675796630859375,2.8403151961058377,10.031777436769008,1.3455679287537932
1647770440004847600,2.68584765625,3.499455396664142,11.4215951338768,-1.1747513433650136
1647770440014898400,2.6958984375,3.8446602884486314,12.390814260041713,-3.2779075719475745
1647770440024949500,2.705949462890625,3.877075242102146,12.898134836626053,-4.807013035975396
1647770440035000600,2.71600048828125,4.141484887945651,13.019526004588602,-5.287245991408825
1647770440045051600,2.7260517578125,4.990165079063177,12.8460866694808,-4.8119066532358525
1647770440055102500,2.7361025390625,6.25942513642311,12.283183906406164,-3.7788463385403155
1647770440065153500,2.746153564453125,7.745674916803837,11.637560774546861,-2.875994119991362
1647770440075204600,2.75620458984375,9.152914873355627,11.088102014935016,-2.2284140088453888
1647770440085255700,2.766255615234375,10.172628507483005,10.739820492184162,-1.575916899563372
1647770440095305500,2.776305419921875,10.569317795050143,10.632758293825388,-0.9137982677161693
1647770440105356500,2.7863564453125,10.06746951239705,10.616612630188465,-0.4105371956557035
1647770440115407400,2.796407470703125,8.758246862483023,10.60542955739498,-0.32915742782503365
1647770440125458400,2.80645849609375,7.062070137074589,10.469314283031224,-0.5148202846899629
1647770440135509500,2.816509521484375,5.293812510317563,10.275130266058444,-0.719979869185388
1647770440145560600,2.826560546875,3.750549633860588,10.13919853156805,-0.9453753092408179
1647770440155611400,2.836611328125,2.733977220368385,9.971779771924018,-0.8924772472679614
1647770440165662500,2.846662353515625,2.519804016073048,9.579164601927996,-0.636629093542695
1647770440175713500,2.856713623046875,3.127689245690405,8.832152056649326,-0.5248989033728838
1647770440185764600,2.8667646484375,4.190392711238562,8.033857067900895,-0.9008055151522159
1647770440195815700,2.876815673828125,5.229553680896759,7.533094242396951,-1.4895014756530522
1647770440205866500,2.886866455078125,6.267659880805015,6.57304568015933,-1.8591484425157307
1647770440215917600,2.89691748046875,7.815097997120023,4.795739070028066,-2.4218881239831447
1647770440225968600,2.90696875,10.050191045337915,2.424893735539913,-2.8490140508681536
1647770440236019700,2.917019775390625,11.502326959192752,-0.35035189928412436,-1.5493693766385317
1647770440246070500,2.927070556640625,9.169030141854286,-3.7558378033965822,2.1027461864769457
1647770440256121600,2.93712158203125,2.697188289414346,-7.029758351534604,7.58729169653058
1647770440266172700,2.947172607421875,-4.5639626967638725,-9.245213802346587,13.14764151237011
1647770440276223500,2.957223388671875,-10.89023434101343,-9.863990428334475,18.12768851752281
1647770440286274600,2.967274658203125,-15.864111133098602,-9.768100196853279,21.259262203431128
1647770440296325400,2.977325439453125,-18.79948069438338,-9.237119927740096,20.861927603697776
1647770440306376400,2.98737646484375,-19.507840560662746,-8.101992446494101,17.440763068938253
1647770440316427500,2.997427490234375,-18.532039718019963,-6.839290724736451,12.536028202140331
1647770440326478600,3.007478515625,-16.460445041131972,-5.774645477470755,7.905134826397895
1647770440336529400,3.017529296875,-14.019687381505966,-5.015591781264543,4.134686898368597
1647770440346580500,3.02758056640625,-11.158408307826518,-4.2960313065350055,0.9997048653215169
1647770440356631600,3.037631591796875,-7.924145816338062,-3.591208966732025,-1.4449503862649202
1647770440366682600,3.0476826171875,-4.717617134949565,-3.072878920355439,-3.1620313680142162
1647770440376733400,3.0577333984375,-2.160821358826756,-2.8471938497036695,-4.246743251752853
1647770440386784500,3.067784423828125,-0.4257844491481781,-2.6983272303164005,-4.767118540221452
1647770440396835600,3.077835693359375,0.4828355391472578,-2.509499187418818,-4.8184056598663325
1647770440406886700,3.08788671875,0.9521405655920505,-2.210378878200054,-4.699128123056888
1647770440416936700,3.097936767578125,1.2248457460939883,-1.7293904282242059,-4.72888963959217
1647770440426987800,3.10798779296875,1.52029701141119,-1.201339782822132,-4.839344402998686
1647770440437038300,3.118038330078125,2.089730053037405,-0.7102490410268306,-4.889348497095704
1647770440447089400,3.12808935546875,2.6718346524491903,-0.1465133342593908,-5.119570042133331
1647770440457140500,3.138140380859375,3.1499399482041595,0.4205097236156463,-5.631973621070385
1647770440467191600,3.148191650390625,3.532908753454685,1.0062532640516757,-6.4192690768986935
1647770440477242400,3.158242431640625,3.888213014449179,1.60209617369771,-7.2957853694468735
1647770440487293400,3.16829345703125,4.2816015069052575,2.2380577432423827,-8.076999459534884
1647770440497344500,3.178344482421875,4.618340183639526,2.8182039020627734,-8.698613939297198
1647770440507395600,3.1883955078125,4.741621987654269,3.2535224877536293,-9.26779388294518
1647770440517446400,3.1984462890625,4.613416463501751,3.5457951230347153,-9.687616793340444
1647770440527497500,3.20849755859375,4.360606070037186,3.7658541704982516,-9.862502235603332
1647770440537548500,3.218548583984375,4.079798539361358,4.0337580881983035,-9.930978974980116
1647770440547599600,3.228599609375,3.753352416321635,4.3412405675709245,-9.982851785558461
1647770440557650700,3.238650634765625,3.1417560572266576,4.638322648960352,-10.002433268862962
1647770440567701500,3.248701416015625,2.5093399052038787,4.7545191708892585,-9.990150125873088
1647770440577752600,3.258752685546875,2.2359715846180914,4.693624849465489,-9.81931191317439
1647770440587803600,3.2688037109375,1.9210411273270844,4.240678837147355,-9.645281041914224
1647770440597854700,3.278854736328125,1.5303078255549072,3.0112656370073556,-9.81164649311304
1647770440607905500,3.288905517578125,1.2777461461544035,1.2912696445941925,-10.574316626250743
1647770440617956600,3.29895654296875,0.5402925795987248,-0.9581009353011846,-11.510956840372085
1647770440628007700,3.309007568359375,-1.4408467503383755,-3.5122435665667053,-10.590180550336838
1647770440638058500,3.31905859375,-6.0895665824115275,-6.430712846454978,-7.383042212617397
1647770440648109300,3.329109375,-13.551742537498473,-9.683233463689684,-3.1879169198989867
1647770440658160400,3.339160400390625,-20.887370672512052,-12.140470548951624,2.6308067687511443
1647770440668211500,3.34921142578125,-25.42111417210102,-13.1267343334198,10.781513269531727
1647770440678262500,3.359262451171875,-27.691296653878688,-13.467393690729141,19.364328746306896
1647770440688313600,3.369313720703125,-27.347843281936644,-13.601910882246493,23.4948947653532
1647770440698364400,3.379364501953125,-23.097195423960684,-12.326027022832632,21.486596794855593
1647770440708415500,3.38941552734375,-17.482869687783715,-9.66768751951158,17.189392937409878
1647770440718466600,3.399466552734375,-12.747751382935046,-6.464312333717942,12.578186258912085
1647770440728516600,3.4095166015625,-9.302345556366443,-3.7793975426822897,8.21113788086772
1647770440738567700,3.419567626953125,-6.788894416451454,-1.5579349604099988,4.5480549335360525
1647770440748618500,3.429618408203125,-4.922209733211994,0.6359528017163276,1.7847054882109163
1647770440758669600,3.439669677734375,-3.543520456101,2.897424738293886,0.009411971467733383
1647770440768720600,3.449720703125,-2.453836629168689,4.940451492345333,-0.978087492275238
1647770440778771700,3.459771728515625,-1.5696236446380614,6.542098168709874,-1.588552216991782
1647770440788822500,3.469822509765625,-0.606781652289629,7.634418773886561,-1.9915087482601403
1647770440798873300,3.479873291015625,0.67159782333225,8.571368200087546,-2.327479070970416
1647770440808924400,3.48992431640625,1.7968461539901792,9.368887528288363,-2.7197674932301044
1647770440818975500,3.4999755859375,2.511301268404722,9.82410499266982,-3.139929426321387
1647770440829026600,3.510026611328125,2.868512824325263,9.961543624591826,-3.353015712162852
1647770440839077400,3.520077392578125,2.991863309662044,9.982511593818664,-3.147315444919467
1647770440849128400,3.53012841796875,2.734322380544245,9.928169762778282,-2.981639145028591
1647770440859179500,3.540179443359375,2.3467022423565385,9.866341375374793,-3.0990123095214366
1647770440869230600,3.550230712890625,2.0146122682109473,10.051464134013653,-3.384215737068653
1647770440879281400,3.560281494140625,1.7660782368913293,10.285264706581831,-3.6978099773198365
1647770440889332500,3.57033251953125,1.4009651140660047,10.258753131753206,-4.059524982139468
1647770440899383600,3.580383544921875,0.995969916576892,10.038064554214477,-4.312100397804379
1647770440909434600,3.5904345703125,0.8755416022971272,9.905381592386961,-4.469669379085302
1647770440919485700,3.600485595703125,1.2729713329680263,9.937307008957863,-4.74366167678833
1647770440929536500,3.61053662109375,2.1805402047753333,9.984442854142188,-5.021386731278896
1647770440939587600,3.620587646484375,3.2417467097640036,9.863320566248893,-4.798928805980086
1647770440949638700,3.630638671875,4.4047564696699375,9.025109162175655,-4.5174125425130125
1647770440959689700,3.640689697265625,5.934080252623557,7.949011377525329,-4.647563355514407
1647770440969740500,3.650740478515625,7.693430350303649,6.6681041369915,-5.287195138004422
1647770440979792000,3.6607919921875,9.424597140550613,4.355802761408686,-6.494954140219092
1647770440989843000,3.670843017578125,10.8886888651371,0.8705652751892805,-7.665933856090903
1647770440999894000,3.68089404296875,10.892787532627581,-1.944999510541558,-6.182324361085891
1647770441009944800,3.69094482421875,7.422896668621897,-3.5820933478623624,-2.0325760871857406
1647770441019996000,3.700995849609375,2.247434058874845,-5.4003889709860085,2.360792142507434
1647770441030047000,3.711046875,-2.261974333141744,-6.885541019257903,6.710510615566372
1647770441040097800,3.721097900390625,-5.912694350245594,-7.010168684923649,10.70517003456354
1647770441050148600,3.731148681640625,-9.505144841471314,-6.1923611864537,13.09476566222906
1647770441060198700,3.74119873046875,-13.651894518077373,-4.968088856333494,14.642612359344959
1647770441070249700,3.751249755859375,-18.989569550997018,-4.236974721932411,15.401578961789607
1647770441080300800,3.76130078125,-24.653821639859675,-3.570793955212831,14.210027582532167
1647770441090351900,3.771351806640625,-27.229316271233557,-2.752741542071104,11.31284600534439
1647770441100403000,3.78140283203125,-25.271362002050875,-1.8883844738721847,8.348767651447654
1647770441110453800,3.791453857421875,-20.929266863477228,-0.9252046278715134,5.871496662938594
1647770441120504800,3.8015048828125,-16.07922220276594,-0.3267296161562204,3.6860897289097307
1647770441130556000,3.811555908203125,-11.217889255321024,0.07233692193627357,2.4992875900059937
1647770441140607000,3.82160693359375,-6.597156039065122,-0.003357493734359741,2.8660861817002297
1647770441150657800,3.83165771484375,-1.9653782817035912,-1.0390455265849827,4.425899210941791
1647770441160708900,3.841708984375,2.765127560913563,-2.2362901490479707,6.037428983417153
1647770441170760000,3.851760009765625,7.027265950196981,-2.9293489858210084,6.206159994703531
1647770441180811000,3.86181103515625,9.6545375305593,-2.6946114246636625,3.799899063441157
1647770441190861800,3.87186181640625,10.905719494915008,-1.3678560406684874,0.10176993716955185
1647770441200912600,3.88191259765625,10.928087978589534,0.7022030972152948,-3.0137948632240295
1647770441210963700,3.891963623046875,9.73047978351116,2.541134096610546,-4.885885204899311
1647770441221014800,3.902014892578125,8.158211177322269,3.7429543564260004,-5.8859536428362125
1647770441231065900,3.91206591796875,6.431493183177709,4.575698142743111,-6.315445714330673
1647770441241116700,3.92211669921875,4.918703770917654,5.235212437310815,-6.330362712955474
1647770441251167700,3.932167724609375,3.823032686269283,5.747131447601318,-6.235913327932358
1647770441261218800,3.94221875,3.2345454000830647,6.0270414449155325,-5.929600476860999
1647770441271270000,3.952269775390625,3.188492089438438,6.164885735028982,-5.322559881374239
1647770441281320700,3.96232080078125,3.309619053506851,6.347598509916663,-4.648291669788956
1647770441291371800,3.972371826171875,3.6258114935576913,6.652305679357052,-3.7227827982738613
1647770441301422800,3.9824228515625,4.205867051485181,6.963537866652011,-2.6886697596549984
1647770441311474000,3.992473876953125,4.703271798732876,7.245550973725319,-2.657375626724958
1647770441321524700,4.002524658203125,5.16783752169609,7.503994404640793,-3.7697231208860873
1647770441331575800,4.012575927734375,5.731520036971569,7.5723682681649915,-4.944324534386396
1647770441341627000,4.022626953125,6.767105778491497,7.168655950093269,-5.6068391798138615
1647770441351678000,4.032677978515625,8.548300043711066,5.865007300919294,-6.445822152781486
1647770441361729000,4.04272900390625,10.132911414122582,3.7137446285545823,-8.078871683147549
1647770441371779800,4.05277978515625,9.661321491611004,1.0929741006493567,-9.290996479356288
1647770441381831000,4.062830810546875,7.88032128765881,-2.03619544672668,-10.026376454508304
1647770441391882000,4.072882080078125,3.5206665269970894,-4.407600753185153,-8.361229073613881
1647770441401931800,4.082931884765625,-6.491094542181491,-4.99125930404067,-3.1516634109959005
1647770441411982800,4.09298291015625,-19.401305601048467,-3.716984633389115,2.442368601953983
1647770441422033700,4.10303369140625,-28.70422866504192,-0.9212707955539226,5.978887362599372
1647770441432084700,4.113084716796875,-29.092201562190056,1.3427251065433023,6.223102361676097
1647770441442135800,4.1231357421875,-21.5586823723793,2.2486218073546884,3.573881107573211
1647770441452187000,4.133186767578125,-13.438390883606672,2.1710124979734418,-0.721570937769115
1647770441462238000,4.143238037109375,-8.459309508615732,1.499026259845495,-4.182984188547731
1647770441472288800,4.153288818359375,-5.61487986292839,1.1211123998969792,-5.802952119022607
1647770441482339800,4.16333984375,-4.099852900874614,1.2324246569156645,-6.455389022549986
1647770441492391000,4.173390869140625,-3.3064643888682124,1.7245716297656297,-6.821697784900665
1647770441502442000,4.18344189453125,-1.8348855233967303,2.5204145491868255,-6.426813500928878
1647770441512492800,4.193492919921875,0.3620668869972229,2.4521008914172646,-5.436612377011776
1647770441522543900,4.2035439453125,2.3893927985697982,1.6117466300964354,-4.6347070888116955
1647770441532595000,4.213594970703125,3.1589334019988775,0.7975316031605004,-3.8794451861038803
1647770441542646000,4.22364599609375,2.4702362675666807,0.38066461996138096,-3.286601166012883
1647770441552696800,4.23369677734375,1.1093173326849937,-0.07216390345692635,-3.606171850325167
1647770441562747600,4.24374755859375,-0.4736486086070537,-0.6237129133462905,-4.5027980339661235
1647770441572798700,4.253798828125,-2.0128969887256623,-1.3812614656865596,-4.519717896845936
1647770441582849800,4.263849853515625,-2.8341502437353134,-1.9073411032766103,-4.083088813078403
1647770441592900900,4.27390087890625,-2.7791724528789516,-2.047522311905026,-4.211377339339256
1647770441602951700,4.28395166015625,-2.155389396905899,-1.9792241439655422,-4.7824549333021045
1647770441613002800,4.294002685546875,-1.8698738346695898,-2.141473392017186,-5.2699669398278
1647770441623053800,4.3040537109375,-2.167761971744895,-2.4604776746183634,-5.308285272306204
1647770441633105000,4.31410498046875,-3.3007746527940034,-2.1890461673140527,-4.325810358726978
1647770441643155700,4.32415576171875,-5.426370968982577,-1.0338722156003117,-2.785065602570772
1647770441653206800,4.334206787109375,-7.8182105761826035,0.2667141233935952,-1.4733502590581773
1647770441663257900,4.3442578125,-9.272917217308283,1.2401345006406306,-1.052616663558781
1647770441673309000,4.354308837890625,-9.576685060071945,1.9587085946813225,-1.1411474721878767
1647770441683359700,4.36435986328125,-9.017492841953038,2.381870001849532,-1.4326850711926817
1647770441693410800,4.374410888671875,-7.743736642217636,2.469438102926314,-1.6327739282950757
1647770441703462000,4.3844619140625,-6.667810707002878,2.2401728357002137,-1.6639543717175722
1647770441713513000,4.394512939453125,-5.60333555560708,1.8273349618867039,-1.2994921140164135
1647770441723562800,4.404562744140625,-3.544128651127219,1.6607722345501184,-1.3853876057058572
1647770441733613800,4.41461376953125,-1.451771172195673,1.5832830444172024,-2.233394719867408
1647770441743664600,4.42466455078125,0.15088205086290835,1.3893731682106851,-2.9828903141334653
1647770441753715700,4.4347158203125,1.1234475648462772,1.4082783596888184,-3.5230864476203916
1647770441763766800,4.444766845703125,1.703438825365901,1.82714645357728,-3.5848631048366424
1647770441773817900,4.45481787109375,1.232256314611435,2.566229082639515,-3.3042841222196815
1647770441783868700,4.46486865234375,-0.11023965935111045,3.239731570549309,-3.1025764317438003
1647770441793919700,4.474919677734375,-0.8897428538680076,3.6241011825084684,-2.8348209826037287
1647770441803970800,4.484970703125,-1.115614971524477,3.9388443005338307,-2.4437857752755283
1647770441814022000,4.49502197265625,-1.0845762746602297,4.125675616656244,-1.8397013992458582
1647770441824073000,4.505072998046875,-0.6216144797623158,4.055210333810747,-1.0875848088264464
1647770441834123800,4.515123779296875,0.5442711278408765,3.8766844892188903,-0.41064270185679197
1647770441844174800,4.5251748046875,2.1772201204419135,3.7001524487927555,0.07581161230951547
1647770441854226000,4.535225830078125,3.563554651609063,3.6051562435418365,0.21733049928247927
1647770441864277000,4.545277099609375,4.418637110984325,3.5185078876584766,0.4664905535459518
1647770441874327800,4.555327880859375,4.6374125483781095,3.5047800988182423,0.8361860357254743
1647770441884379000,4.56537890625,4.020321683520079,3.7006150978684422,0.9903007848992943
1647770441894430000,4.575429931640625,2.9121576125234365,3.8325747138574715,1.1833660269752144
1647770441904481000,4.58548095703125,1.7993366556316612,3.645789867225289,1.9818252663746474
1647770441914531800,4.59553173828125,1.1782687038362025,3.0804736132681367,3.3468700490146874
1647770441924582700,4.605582763671875,0.6795762548655271,2.6097408921077845,4.789421557444334
1647770441934633700,4.6156337890625,-0.05699965207278728,2.3769126717031,5.449242726004123
1647770441944684800,4.625684814453125,-0.9060837478160858,2.450446109947562,4.766604160958528
1647770441954735900,4.63573583984375,-1.0520821182906628,3.025202392423153,3.075374244302511
1647770441964786700,4.64578662109375,-0.4142050705134868,3.8997847942993045,1.2907634486377237
1647770441974838300,4.65583837890625,0.3227431768685579,4.35644865809679,-0.1755406913012266
1647770441984889300,4.665889404296875,1.0457862330168486,4.0149113489091395,-0.6695908674240112
1647770441994940200,4.675940185546875,0.834319657331705,3.591902501954138,-0.550408023160696
1647770442004991000,4.685990966796875,-0.1859147857993841,3.178162126342952,-0.3549281211584806
1647770442015042000,4.6960419921875,-1.3375713770419357,2.6812758500114082,0.11566402248740196
1647770442025093000,4.706093017578125,-2.5605939993619917,2.165646148634702,0.6685942576020956
1647770442035144200,4.716144287109375,-3.8901685324311255,1.3873146282456814,0.9786007024943828
1647770442045195000,4.726195068359375,-4.651667868223786,0.40893604406937956,1.0689064118415117
1647770442055246000,4.73624609375,-4.654195925396681,-0.4609722285158932,1.1712883434295653
1647770442065297200,4.746297119140625,-4.24943497505486,-1.3648283634103833,1.35257663847208
1647770442075347200,4.75634716796875,-3.704253162109852,-2.3941706804960963,1.935478818002343
1647770442085398300,4.766398193359375,-3.04087342428565,-3.435633789616823,2.626539758956432
1647770442095449000,4.776448974609375,-2.6218337732225656,-4.257853259310126,3.5057366688907146
1647770442105500200,4.786500244140625,-2.278237193417549,-5.099352014490962,4.3557869793176645
1647770442115551200,4.79655126953125,-1.7199240962207316,-5.856138934808969,4.6773535136222835
1647770442125602300,4.806602294921875,-1.321326929205656,-6.129121763208508,4.431242910057306
1647770442135653400,4.8166533203125,-1.1915332590788603,-5.946409572842716,3.5325229690074917
1647770442145704200,4.8267041015625,-1.2925865724116563,-5.537364077049493,2.1600357614070176
1647770442155755300,4.83675537109375,-1.2613491381049156,-4.968093532508611,0.8200643374860286
1647770442165806000,4.84680615234375,-0.8524205466896295,-4.396066674996912,-0.2716904505014419
1647770442175857200,4.856857177734375,-0.3310913184970617,-3.8793104538083076,-1.0937900932073592
1647770442185908000,4.866907958984375,0.11148586001992225,-3.407200599075854,-1.800314560753107
1647770442195959000,4.876958984375,0.6000538053393364,-3.1470705302476882,-2.339644140538573
1647770442206010000,4.887010009765625,1.3053344103038311,-3.0256802390679716,-2.392689502027631
1647770442216061200,4.897061279296875,2.1177356658160686,-2.9446470927178856,-2.1500193943053483
1647770442226112000,4.907112060546875,2.7728496795982123,-3.05252089972049,-2.088046045473218
1647770442236163000,4.9171630859375,3.368376362901926,-3.232541951306164,-2.1708622758477927
1647770442246214100,4.927214111328125,3.875840439610183,-3.368409680649638,-2.5366204185783863
1647770442256265200,4.93726513671875,4.081317711752653,-3.349339946259558,-3.209511496591568
1647770442266316300,4.94731640625,4.047495229388773,-3.3915324898228048,-3.866367385604977
1647770442276367000,4.9573671875,4.03677743601948,-3.4945059575632214,-4.12235173293054
1647770442286418200,4.967418212890625,4.06125575145483,-3.5303549773186442,-3.9026246939003464
1647770442296469200,4.97746923828125,4.232489100950956,-3.503415532466769,-3.5657401789546013
1647770442306520300,4.987520263671875,4.316789432403445,-3.3201199892550703,-3.607401392120123
1647770442316571100,4.997571044921875,4.329924516047537,-3.0946015073418613,-3.885876388195157
1647770442326622200,5.007622314453125,4.508286109988391,-3.1570725765630603,-4.064452501669526
1647770442336673300,5.01767333984375,4.831656771105528,-3.471488362330198,-4.184475303888321
1647770442346724400,5.027724365234375,4.683511159469187,-3.847371300972998,-4.70378734703958
1647770442356775200,5.037775146484375,3.6224545843452214,-4.2924817973598834,-5.061956057554483
1647770442366826000,5.047825927734375,1.795051525658369,-4.689759990730882,-4.404460117071867
1647770442376877000,5.057876953125,-0.6128811382085084,-5.271309586608409,-2.795595179891586
1647770442386928000,5.06792822265625,-3.4760523092448707,-6.300090324288607,-0.589390372505784
1647770442396979200,5.077979248046875,-5.654047505712509,-7.579913861238956,1.3513175783216953
1647770442407030000,5.088030029296875,-6.132463474851846,-8.969791179579495,2.858082323464751
1647770442417081000,5.0980810546875,-5.623471165663004,-10.28474448210001,4.6482086676806205
1647770442427131100,5.108131103515625,-5.221155270385742,-11.187240434557198,6.536335367399453
1647770442437182200,5.11818212890625,-5.333194672635197,-11.124530588144063,7.934457366994023
1647770442447233300,5.1282333984375,-6.331936245882511,-10.233748454356192,8.725342371746898
1647770442457284000,5.1382841796875,-8.396679157179593,-8.95135828178823,9.250383898460864
1647770442467335200,5.148335205078125,-10.951285314303636,-7.607862190872431,9.516356555837392
1647770442477386200,5.15838623046875,-12.81643270497322,-6.191317814880609,9.91358944876194
1647770442487437300,5.168437255859375,-13.322135324966906,-4.6477170847713944,9.738275551953912
1647770442497488400,5.17848828125,-11.772931368023157,-3.1140988194942474,8.616167126756906
1647770442507539200,5.188539306640625,-8.658505216270685,-1.5566063421547411,6.990231812310219
1647770442517590000,5.198590087890625,-5.344273116010427,0.06390344011187553,5.328132713070511
1647770442527641000,5.20864111328125,-2.464252516981959,1.5999392879247665,4.200502309581637
1647770442537692200,5.218692138671875,-0.5144996744334698,2.7670219963580367,3.4703754326522347
1647770442547743000,5.228742919921875,0.2601905668437481,3.4539117891073223,3.019436668503284
1647770442557794000,5.2387939453125,0.5234264927327632,4.012199751862883,2.463302084389329
1647770442567845000,5.24884521484375,1.0664005665004253,4.700007243978977,1.5671137076437471
1647770442577896200,5.258896240234375,2.019010503169894,5.618454798805713,0.5125643224567175
1647770442587947000,5.268947021484375,3.039551235771179,6.425390774649381,-0.5707230814367532
1647770442597998000,5.278998046875,3.9850025328576564,6.69098933801651,-1.5102403122991324
1647770442608049200,5.289049072265625,5.153454776078462,6.5320321172475815,-1.8005968848258256
1647770442618100200,5.299100341796875,6.476379788130521,6.3484641868352885,-1.607685372006893
1647770442628151300,5.3091513671875,7.534635042098164,6.314116511553525,-1.5682745681166648
1647770442638202000,5.3192021484375,8.245392032647132,6.429944784691929,-1.6612953816413878
1647770442648253200,5.329253173828125,8.55228414491117,6.821821119019389,-1.674801344424486
1647770442658304300,5.33930419921875,8.735622358220816,7.483449044740199,-1.5712076989591122
1647770442668355300,5.349355224609375,8.720288595488666,8.24558375582695,-1.471883401376009
1647770442678406100,5.35940625,8.33422708491981,8.782076650881766,-1.6618711357027292
1647770442688457200,5.369457275390625,7.952165457642078,9.293280206379293,-1.9200433484613895
1647770442698508300,5.37950830078125,7.729491259244084,9.853900411474704,-2.0671756914019586
1647770442708559400,5.389559326171875,7.66323511852622,10.28500400981903,-2.0490087510704993
1647770442718610200,5.399610107421875,7.752748216190934,10.632366664159298,-1.7723258991092443
1647770442728661000,5.409660888671875,8.038950007125734,10.940891346061228,-1.065026647798717
1647770442738712000,5.419712158203125,8.67653011778295,11.117708048647641,0.25740824264883994
1647770442748763100,5.42976318359375,9.097658850079775,10.855537121641635,1.637104066453874
1647770442758814200,5.439814208984375,8.965471562814711,10.266722503197192,2.664289059375226
1647770442768865000,5.449864990234375,8.934601792776585,9.48799263114035,3.0477117458730936
1647770442778915000,5.4599150390625,9.371184114792943,8.993343320080637,2.5295272454470394
1647770442788966100,5.469966064453125,9.956985522896051,8.899913925755023,1.2063035427093505
1647770442799017200,5.480017333984375,10.95569611648321,8.047669904676079,-0.9195575618952512
1647770442809068300,5.490068359375,11.938338203322887,5.796622916001081,-2.4073633395463228
1647770442819119000,5.500119140625,11.620110458052158,2.7426643846929073,-0.8320473284855484
1647770442829170200,5.510170166015625,8.809852546557783,-0.7511217341631651,5.759312299260497
1647770442839221200,5.52022119140625,3.159204035633802,-4.696732167831063,15.241416456884146
1647770442849272300,5.530272216796875,-5.253821276190877,-7.342332016566395,23.853641568017004
1647770442859323100,5.5403232421875,-14.256000229156017,-6.911482685244083,28.992687879514694
1647770442869374200,5.550374267578125,-21.62285819969177,-5.190915030422806,27.622853816771507
1647770442879425000,5.560425048828125,-23.98196282750368,-4.1694478306263685,19.215461542397737
1647770442889476000,5.57047607421875,-21.005521251118182,-3.965466642260551,9.056199881488084
1647770442899527200,5.580527099609375,-16.29808473392129,-4.289989688283205,1.6237831048488616
1647770442909578000,5.590577880859375,-11.855054355436563,-5.235466119810939,-3.0100162214681503
1647770442919629000,5.600629150390625,-7.687130957898497,-5.948444293540716,-5.3270396571367975
1647770442929680100,5.61068017578125,-3.960639660495519,-6.29762071930468,-5.898106437444686
1647770442939731200,5.620731201171875,-1.1961574117481708,-6.74341393725872,-5.206788306859135
1647770442949782000,5.630781982421875,0.8027537217229604,-7.31035691563487,-3.640521571433544
1647770442959833000,5.6408330078125,2.4215023395359516,-7.580100323721766,-2.286743740478158
1647770442969884200,5.65088427734375,3.8076936628401277,-7.35317665118575,-1.7641215498656033
1647770442979934700,5.660934814453125,4.616559729963541,-6.487308009380102,-2.0978286038190124
1647770442989985800,5.67098583984375,4.713507361543178,-5.255779424521327,-2.874386392533779
1647770443000036600,5.68103662109375,4.611061717069148,-3.9424873332113024,-3.848879659709334
1647770443010087700,5.691087646484375,4.57189407428503,-2.628639946106076,-4.520229938021302
1647770443020138800,5.701138671875,4.72784685254097,-1.4251841940432786,-5.067248318743705
1647770443030189800,5.71118994140625,4.715346267408132,-0.2030073748975992,-5.807531263506412
1647770443040240600,5.72124072265625,4.4998634418189525,0.9353636183142662,-6.631319589951634
1647770443050291700,5.731291748046875,4.37506217315197,1.9061603690594433,-7.424500012165308
1647770443060342500,5.741342529296875,4.444407512056827,2.698900646290183,-8.20663998492658
1647770443070393600,5.7513935546875,4.516744433993101,3.2612019363403317,-9.00588949792087
1647770443080444700,5.761444580078125,4.348931706595421,3.685705698028207,-9.583840777045488
1647770443090495500,5.77149560546875,3.922646322187781,3.9172166983544825,-10.081038603544235
1647770443100546600,5.781546630859375,3.6620600340247154,3.6913165236473082,-10.671630168533325
1647770443110597600,5.79159765625,3.9100820241689678,3.1788229283392426,-11.162347985363006
1647770443120648700,5.801648681640625,4.469951118636131,2.253427161809802,-11.671278335231541
1647770443130698800,5.81169873046875,5.28369326736331,0.2839928827136755,-11.79446515443921
1647770443140749600,5.82174951171875,5.711653306984901,-3.3835300928920504,-10.267200642102956
1647770443150800600,5.831800537109375,3.8363603698760267,-7.452262463837862,-4.603757531535625
1647770443160851700,5.841851806640625,-2.3236229800641537,-10.570018052273989,7.775513590228557
1647770443170902800,5.85190283203125,-12.430341968309879,-13.149900104951858,22.234539314460754
1647770443180953900,5.861953857421875,-21.814218975937365,-12.361375399589537,31.961605490136144
1647770443191004700,5.872004638671875,-23.89943535094261,-9.377204105734824,33.00554755659103
1647770443201055700,5.8820556640625,-17.67636046179533,-5.951161735805869,24.43719548945427
1647770443211106800,5.89210693359375,-11.209892995870113,-2.5198586688697335,14.39506617001891
1647770443221157600,5.90215771484375,-7.6187769681185475,0.451930113273859,6.984813294392824
1647770443231208400,5.91220849609375,-5.759767641812562,2.512539870288968,1.6221674863457678
1647770443241259500,5.922259521484375,-3.6814907106816768,3.8912019671320914,-1.612588633878529
1647770443251310600,5.932310546875,-1.1718009691268205,4.922433605095744,-2.873680874612927
1647770443261361700,5.942361572265625,0.8081652253776789,5.650061066424846,-2.9025936653643845
1647770443271412700,5.952412841796875,2.2973843769580125,5.643727771750092,-2.4316090152695775
1647770443281463600,5.962463623046875,4.266129504746198,4.857160630196333,-1.544443026152253
1647770443291514600,5.9725146484375,7.238477089816332,4.05485815937221,-0.1345776895329356
1647770443301565700,5.982565673828125,10.251185911369323,3.7002123622864485,0.9822940040543675
1647770443311616800,5.99261669921875,12.200828279280662,3.7245875096082686,1.2712380794346332
1647770443321667600,6.00266748046875,12.631987991726398,3.9946757856100796,0.5923357783079147
1647770443331718700,6.01271875,11.516253777736425,4.579921313396096,-0.43392508550584313
1647770443341769700,6.022769775390625,8.93218537928462,5.399798603877425,-1.1058747910156845
1647770443351820800,6.03282080078125,5.696738061925768,6.165027189326286,-1.2649243662431835
1647770443361871600,6.04287158203125,1.947161657011509,6.576483837914466,-1.0082213492542504
1647770443371922700,6.052922607421875,-1.3472013751745224,6.781472157496213,-0.5576175161480903
1647770443381973800,6.062973876953125,-3.1050977669149638,6.771474495095014,-0.3003495587527752
1647770443392024800,6.07302490234375,-3.3610546417117115,6.4537190435111516,0.2996341039597988
1647770443402075600,6.08307568359375,-2.2884446991771457,5.786580245414376,1.3078002158954738
1647770443412126700,6.093126708984375,-0.4486456847757101,4.823997780784964,2.7331746718138454
1647770443422177500,6.103177490234375,1.5810034090474248,3.4063854833006855,3.6181475348010657
1647770443432228600,6.113228515625,3.783027131356299,1.6607774952471255,3.3352371866270896
1647770443442279700,6.12327978515625,5.659843624770641,-0.028246435797214507,1.9713176086246966
1647770443452330500,6.13333056640625,6.149072079825401,-1.2298977687865496,0.7460922155633568
1647770443462381600,6.143381591796875,4.451198779632151,-1.3038906412363052,1.6022858510509133
1647770443472432600,6.1534326171875,1.3862956604614853,-0.8407371231585741,4.547053939799964
1647770443482482700,6.163482666015625,-1.7875977025210856,-1.0413584797024726,7.8209204196631905
1647770443492533800,6.17353369140625,-4.80365875711143,-1.2880986133426426,10.488405936992168
1647770443502584600,6.18358447265625,-7.4351400641232726,-0.8507236796438693,11.245869149136542
1647770443512635600,6.1936357421875,-8.161924644887447,-0.06543254937529563,9.226272370511293
1647770443522686700,6.203686767578125,-6.2293988314718005,0.6583049187779426,5.3693198789834975
1647770443532737800,6.21373779296875,-4.009375342091918,1.0805120939612387,1.982604141792655
1647770443542788900,6.223788818359375,-2.8916011467069387,0.932267990386486,-0.5359679943978786
1647770443552839700,6.233839599609375,-2.541247493857145,0.4587608360767364,-1.9304718034952877
1647770443562890800,6.243890869140625,-2.4860826559960842,0.15434242044985294,-2.438331601522863
1647770443572941800,6.25394189453125,-2.557024031920731,0.2766828519612551,-2.491269703245163
1647770443582992600,6.26399267578125,-2.7642423025116325,0.5795587143212556,-2.3151710858002303
1647770443593043500,6.27404345703125,-2.632759656384587,0.6478980910539627,-1.95170076174587
1647770443603094500,6.284094482421875,-2.098676745080948,0.5779308208584785,-1.557173620648682
1647770443613145600,6.2941455078125,-1.4627677825063465,0.5146212549865246,-1.3057383149296045
1647770443623196700,6.30419677734375,-0.9402759402751922,0.5640162772744893,-1.126793660403788
1647770443633247500,6.31424755859375,-0.4544260217428207,0.7121838084816933,-0.8610445826500653
1647770443643298600,6.324298583984375,0.22151918314397334,0.9090957891136408,-1.0189607699334622
1647770443653349600,6.334349609375,0.6980348716199397,1.1239707119375466,-1.9562322676956652
1647770443663400700,6.344400634765625,0.9507903200268745,1.371612762853503,-2.766234353111684
1647770443673451800,6.35445166015625,1.205638356798887,1.7184142761796712,-2.5971184341609477
1647770443683502600,6.364502685546875,1.6538912428647279,1.8447265339314936,-1.7266434676036237
1647770443693553700,6.3745537109375,2.436964697083831,1.6617232516646385,-1.2662620445877313
1647770443703604700,6.384604736328125,3.7465965123206373,1.7181027260124682,-1.8317969097316265
1647770443713655800,6.39465576171875,5.387438888520002,1.7878905479878187,-3.2229531619668004
1647770443723706600,6.40470654296875,6.768888570255041,1.39550918674767,-4.96789128793478
1647770443733757700,6.4147578125,7.368031690490246,0.5339964020639658,-6.015609365797043
1647770443743808800,6.424808837890625,6.9132128700375555,-0.9063801004141568,-6.417847519662976
1647770443753859800,6.43485986328125,5.3520343976616855,-2.6339398060798644,-6.4348150210767985
1647770443763910700,6.44491064453125,2.8509876890286803,-3.4549119060605764,-5.116190921089053
1647770443773961700,6.454961669921875,0.3991156379312277,-3.0832804873824116,-3.193632374936342
1647770443784012500,6.465012451171875,-0.978048329308629,-2.9439053344398736,-0.9982593426883221
1647770443794063600,6.475063720703125,-2.3357868805885316,-3.316648513752222,3.004416209504008
1647770443804114700,6.48511474609375,-5.181822792428732,-3.340298269408941,8.011925806599855
1647770443814165500,6.49516552734375,-8.135954337328672,-3.925320509833097,10.809680210351944
1647770443824216600,6.505216552734375,-9.88190368616581,-3.9030700995802876,11.327487109637259
1647770443834266600,6.5152666015625,-11.037122353804111,-2.7469197040498257,9.363912662485241
1647770443844317700,6.525317626953125,-11.663533420193195,-1.151730825522542,5.534470693695545
1647770443854368800,6.53536865234375,-11.124855582314728,0.7721843959361314,2.0473785195201635
1647770443864419600,6.545419677734375,-10.108263295078277,2.9453935271710154,-0.15099311002194882
1647770443874470700,6.555470703125,-10.45082117948532,5.595881732469797,-1.3464362360209225
1647770443884521700,6.565521728515625,-13.24131815945506,9.442625549194217,-2.6879741786062716
1647770443894572800,6.57557275390625,-17.29653346170187,13.90386086193323,-5.825512910398841
1647770443904623900,6.585623779296875,-19.848600455737113,17.91912643110752,-9.38448491039276
1647770443914674700,6.5956748046875,-20.353229893541336,19.992671073019505,-10.85276882597208
1647770443924725800,6.605725830078125,-19.317461781191824,18.51735886623859,-8.435876026058196
1647770443934776800,6.61577685546875,-15.480297693717478,15.189548322480917,-3.594840016710758
1647770443944827600,6.62582763671875,-10.075901825177668,12.640884414887427,0.8048743671387434
1647770443954878500,6.63587841796875,-4.422314922714233,9.611971477508545,3.9626743811935183
1647770443964929500,6.645929443359375,1.7137740491583942,5.629821995994448,4.853554130136966
1647770443974980600,6.655980712890625,6.825726309764385,1.7972621874451635,2.8426918621093034
1647770443985032000,6.666031982421875,9.51882206916809,-1.237864217621088,-0.2547568513572216
1647770443995082800,6.676082763671875,10.288801064014434,-3.3374662608534096,-1.6349527336388825
1647770444005133800,6.6861337890625,9.021563452392815,-5.062611891114711,-1.6021499497115612
1647770444015185000,6.696184814453125,6.784121795222163,-6.948700947526097,-1.5450070897758006
1647770444025236000,6.706236083984375,4.404188022132217,-8.238069142413138,-0.917985782533884
1647770444035286800,6.716286865234375,2.394860124064982,-8.706354178160428,0.8981225596785545
1647770444045337900,6.726337890625,0.8059849587291479,-9.068869393447041,2.479124507421255
1647770444055389000,6.736388916015625,-0.9619880058676004,-9.53743675326705,3.285007174819708
1647770444065440000,6.74643994140625,-3.0730738584056496,-9.756184133610128,3.212092745256424
1647770444075490800,6.75649072265625,-5.524859984785318,-8.78404532060623,2.540781629911065
1647770444085541600,6.766541748046875,-7.576610728040337,-7.089992747744917,1.247871816894412
1647770444095592700,6.7765927734375,-8.506902449917792,-5.28792520584464,-0.3175496998786926
1647770444105643800,6.786643798828125,-8.503251526194811,-3.638015141570568,-1.606331619310379
1647770444115694800,6.79669482421875,-7.351218502855301,-2.405753566262126,-2.695558350124955
1647770444125745700,6.80674560546875,-5.353774519327283,-1.438708277004957,-3.4424645124197006
1647770444135796700,6.816796630859375,-3.768414668636024,-0.6778899092137813,-3.6934278167128562
1647770444145847800,6.826847900390625,-2.938477464172244,-0.33667993228435517,-2.5290380006253717
1647770444155899000,6.83689892578125,-2.6190011801451445,-0.33596038583815097,0.4032178125530481
1647770444165949700,6.84694970703125,-3.0330913921073077,-0.37745851739645003,2.44298994872272
1647770444176000800,6.857000732421875,-3.910819106271863,0.2229886711746454,2.3950766894251108
1647770444186051800,6.8670517578125,-4.152461332251131,1.356554894453287,0.6235194366008043
1647770444196103000,6.87710302734375,-3.726147306270897,2.4260627793192864,-1.7841501924157142
1647770444206153000,6.887153076171875,-3.1006349422872064,3.249629571968317,-3.814556534346938
1647770444216204000,6.8972041015625,-2.7127456317692995,3.594467091745138,-5.3841310791462655
1647770444226254800,6.9072548828125,-2.611848970302939,3.278650499269366,-6.276399652099609
1647770444236305700,6.9173056640625,-2.677686593347788,2.6650252646952866,-6.286379194322228
1647770444246356700,6.927356689453125,-2.867913104866445,2.2144231851547955,-5.435488925939798
1647770444256407800,6.93740771484375,-2.9309906155481933,1.9545605350911617,-4.407822579242289
1647770444266458600,6.947458740234375,-2.719881767259538,1.7772522495955227,-3.3696830615863202
1647770444276509700,6.957509765625,-2.414931144452095,1.5664929453969,-2.199362394145131
1647770444286560800,6.967560791015625,-1.8554530951291321,1.5270307035803794,-1.232244916434586
1647770444296611800,6.97761181640625,-1.0571946389988065,1.5968080041617154,-0.7822609687924384
1647770444306663000,6.987662841796875,-0.2171241630554199,1.850830111503601,-1.204100187446177
1647770444316713700,6.997713623046875,0.43167555301338434,2.3123750253409145,-2.3017869958311317
1647770444326764800,7.007764892578125,0.7918494658708571,2.9770518172383307,-3.346544762583077
1647770444336815900,7.01781591796875,0.6851870804846286,3.7591000200629234,-3.9676705820456144
1647770444346867000,7.027866943359375,0.30893647757321596,4.184917786958813,-4.31482193172276
1647770444356917800,7.037917724609375,-0.16846797643601893,4.327714731043577,-4.195536796128749
1647770444366968800,7.04796875,-0.5419157968863845,4.424865776240825,-3.6809295696675775
1647770444377020000,7.05802001953125,-0.5691919263467192,4.608692065328359,-3.2936256578221914
1647770444387071000,7.068071044921875,-0.20390812312960624,4.995085584330559,-3.1320190915882584
1647770444397121800,7.078121826171875,0.4913450088173151,5.5133378892958165,-2.8827368722498417
1647770444407172900,7.0881728515625,1.417621065312624,5.918403375542163,-2.5476898018643257
1647770444417224000,7.098223876953125,2.3149901762753724,6.153583419770002,-2.4502698765978215
1647770444427275000,7.10827490234375,3.0220056422084567,6.2790381839096545,-2.775656845973432
1647770444437325800,7.118325927734375,3.5011844124138354,6.4476563824713224,-3.243045809663832
1647770444447376600,7.128376708984375,3.653281684285402,6.6996390929400915,-3.6458883591637012
1647770444457427700,7.138427734375,3.450555464416742,7.204090251567959,-3.924651816791296
1647770444467478800,7.148478759765625,3.15506795874238,7.8563254950433965,-4.070136684785783
1647770444477529900,7.15852978515625,2.7485443826422093,8.171319665220379,-4.125546145057678
1647770444487580700,7.16858056640625,2.309444232586026,8.12046100012064,-3.711826812234521
1647770444497631700,7.1786318359375,2.195253789782524,7.834434565752744,-2.59144506469965
1647770444507682800,7.188682861328125,2.6176819142401215,7.200331775817275,-1.2496695139661431
1647770444517734000,7.19873388671875,3.111348644003272,6.2186652560114855,0.27577976564168927
1647770444527784700,7.20878466796875,2.9917981354713437,5.328232666313648,2.4793179841667414
1647770444537835800,7.218835693359375,2.144246071600914,4.402658036085963,4.741267182867229
1647770444547886800,7.228886962890625,1.2897826209068297,3.8606560222208497,6.11934505008161
1647770444557938000,7.23893798828125,0.17811784831285477,3.7292455645471807,6.70570350754559
1647770444567989000,7.248989013671875,-1.503356982526183,3.0943162606596943,6.928355494111776
1647770444578039000,7.2590390625,-3.154218063914776,2.120205855321884,7.2480422060191625
1647770444588089900,7.26908984375,-4.520904476282,0.9343991571962833,7.78643655078113
1647770444598140700,7.279140625,-5.103142638945579,-0.5468675740748643,8.154910966733098
1647770444608191700,7.289191650390625,-4.813611995849013,-1.9735826309472322,8.370162906175851
1647770444618242800,7.299242919921875,-4.541062882691621,-2.9771748590961096,8.731834071853756
1647770444628293600,7.309293701171875,-4.5607589322865,-4.1250478401467205,8.84462283116579
1647770444638344700,7.3193447265625,-4.770633854866028,-5.119060339045524,9.20288974135816
1647770444648395800,7.329395751953125,-5.234942388197779,-5.675827960366011,9.57551776985824
1647770444658446800,7.33944677734375,-5.716089828127623,-6.153917766290903,9.037997285321355
1647770444668498000,7.349497802734375,-5.583979113230109,-6.477180583119392,7.715432338753343
1647770444678548700,7.359548828125,-5.3506654473960396,-6.74837535905838,6.7726166508674615
1647770444688599800,7.369599853515625,-5.357480972629785,-7.292516138517856,6.2120993216246365
1647770444698651000,7.37965087890625,-5.585341633754968,-7.781601970231533,5.596728704687953
1647770444708702000,7.389701904296875,-5.43818941707015,-8.121571591711044,4.998728909268975
1647770444718752800,7.399752685546875,-4.787766191452741,-8.276953876602649,4.306365069022775
1647770444728803800,7.409803955078125,-3.7321477157294747,-8.324682426983118,3.307228358978033
1647770444738855000,7.41985498046875,-2.477104984292388,-8.373107727456093,1.9927163704842328
1647770444748906000,7.429906005859375,-1.3345844701856373,-8.24664758566618,0.38087797045111654
1647770444758956800,7.439956787109375,-0.3995020069003105,-7.942406280171871,-1.0564151790589094
1647770444769007900,7.4500078125,0.6511795969426631,-7.556044325351714,-2.285667635679245
1647770444779059000,7.460058837890625,1.601056893777847,-7.37833564236164,-3.633521921804547
1647770444789110000,7.470110107421875,2.622448105728626,-7.399566646438837,-5.027385094910859
1647770444799160800,7.480160888671875,3.676269761162996,-7.338271342998743,-6.191911104598641
1647770444809211600,7.490211669921875,4.343825323367119,-7.174829670292139,-7.123417462962865
1647770444819262700,7.5002626953125,4.3871664524436,-6.953380629774927,-7.831117404028773
1647770444829313800,7.510313720703125,3.929136560989916,-6.52312049651742,-8.176476901853084
1647770444839364900,7.52036474609375,3.35222689987272,-5.836106200605631,-8.25581931863725
1647770444849415700,7.530415771484375,2.8298075383558867,-5.12805729997158,-8.198888055625558
1647770444859466800,7.540466796875,2.6376000821530816,-4.767960836264491,-7.6827610722512
1647770444869517800,7.550517822265625,2.365821953368187,-4.598291959606111,-6.523556549847125
1647770444879569000,7.56056884765625,1.6172969576999545,-4.429871329443157,-5.45074085560739
1647770444889619700,7.57061962890625,0.8432540744155644,-4.202985358569026,-4.951928579649329
1647770444899670800,7.5806708984375,0.27050825497955083,-3.8158205629333852,-5.052784324583411
1647770444909721900,7.590721923828125,-0.14333032030910253,-3.2613992124781013,-5.6782987343937155
1647770444919773000,7.60077294921875,-0.739571873883903,-2.49853910972625,-6.454997977405786
1647770444929824000,7.610823974609375,-1.4196756597548723,-2.1195015064448115,-7.565035441058874
1647770444939874000,7.6208740234375,-1.9026333639770745,-2.6301173251822587,-8.559512342599033
1647770444949924900,7.6309248046875,-2.21484404091537,-3.8688533572018144,-8.644187352582811
1647770444959975700,7.6409755859375,-3.278309138485789,-5.6441059574127195,-7.661280477327108
1647770444970026800,7.65102685546875,-5.851963110429049,-7.417971487179398,-5.339440873548388
1647770444980077300,7.661077392578125,-9.914385567575692,-8.970537029510735,-1.4884569350361823
1647770444990128400,7.67112841796875,-14.361542670601606,-10.163500613653659,2.9058278249800202
1647770445000179200,7.68117919921875,-17.807026823103428,-10.28127476016283,7.7365861859411
1647770445010230300,7.691230224609375,-18.91128687239885,-9.50360637985766,11.574679078698157
1647770445020281300,7.70128125,-17.588021668606995,-8.364909223431349,13.091656005775928
1647770445030332200,7.711332275390625,-14.78393806183338,-6.8991147865802045,11.889167052918673
1647770445040383000,7.721383056640625,-12.012574821400642,-4.731822185912728,9.296721871265769
1647770445050434000,7.73143408203125,-9.696600310263037,-1.9232541272014378,7.188066168484092
1647770445060485000,7.741485107421875,-7.610092726403474,0.7400403681784867,5.622307967102527
1647770445070536200,7.7515361328125,-5.575199009925127,2.981549713179469,4.592593747964501
1647770445080587300,7.761587158203125,-3.5928456280231473,5.087877849796414,3.967691917094588
1647770445090638000,7.77163818359375,-1.8619556088909506,6.879464329692721,3.120772305908799
1647770445100689200,7.781689208984375,-0.458513583317399,8.248676461145282,1.9788450815200804
1647770445110740200,7.791740234375,0.5145908598482608,9.350739292657375,0.8699602950334548
1647770445120791300,7.801791259765625,1.2308373877242207,10.29345502730012,-0.04516922128647566
1647770445130842000,7.811842041015625,1.865655047930777,11.0009977319777,-0.6872682706728577
1647770445140893200,7.82189306640625,2.4169909995913503,11.280940462517737,-1.3304969086110592
1647770445150944300,7.8319443359375,2.9895185001015663,11.11405712492466,-1.9660066427350043
1647770445160995300,7.841995361328125,3.689080435158312,10.757134030556678,-2.3868656181797383
1647770445171046100,7.852046142578125,4.471814866681397,10.435553467726708,-2.750942091433704
1647770445181097200,7.86209716796875,5.225789359927177,10.214141252088545,-3.137637515991926
1647770445191148300,7.872148193359375,5.690592983299493,10.163539192098378,-3.220299724848568
1647770445201199400,7.882199462890625,5.791640451413393,10.24537342569828,-3.128769442142546
1647770445211250400,7.89225048828125,5.680387231105565,10.377028798043728,-3.0870807564482092
1647770445221301200,7.90230126953125,5.488787969928979,10.60723923716545,-2.942740090052783
1647770445231352000,7.91235205078125,5.3069081387341015,10.886689800274372,-2.6246988072648643
1647770445241403100,7.922403076171875,5.113227979630231,10.96271037915945,-2.218909682919085
1647770445251454200,7.9324541015625,4.923609078615904,10.93895073338747,-1.783951162712276
1647770445261505000,7.942505126953125,4.873792616045475,10.864819329249858,-1.2314210328310726
1647770445271556000,7.95255615234375,4.940211838370561,10.532273135769367,-0.5985767185240983
1647770445281607200,7.962607177734375,4.94634931821227,9.992350266265868,-0.1639940458923578
1647770445291658200,7.972658203125,5.326071104365587,9.30298619235754,-0.06529401768743992
1647770445301709000,7.982708984375,6.002858605295419,8.364352174070477,-0.3776595929265022
1647770445311759400,7.99275927734375,6.808774005919695,6.560917435470223,-0.8523439743220805
1647770445321810200,8.00281005859375,7.389502348542213,4.390419901281595,0.3596633329868316
1647770445331861200,8.012861328125,6.036824003261327,2.423588498160243,4.545787573125958
1647770445341912300,8.022912353515625,2.2684449904605746,-0.134153618901968,10.534344681346417
1647770445351963400,8.03296337890625,-2.9697230817854403,-2.851176781859994,15.911276204377412
1647770445362014200,8.04301416015625,-8.573889242997765,-4.59852606062293,19.724595305883884
1647770445372065300,8.053065185546876,-12.935724270308016,-5.431421822631359,21.143019504272935
1647770445382116400,8.063116455078125,-15.144401020765304,-5.737995370465517,19.949456200671193
1647770445392167200,8.073167236328125,-15.138752201223372,-6.254066824260354,16.599306399333475
1647770445402218000,8.083218017578124,-13.17831955922842,-6.855932062935829,12.034262921595573
1647770445412269000,8.09326904296875,-10.656930612051486,-7.389708684769272,7.716494415026903
1647770445422320000,8.103320068359375,-8.04997935066223,-7.914023650774359,3.967309639778733
1647770445432371200,8.11337109375,-4.964304077097773,-8.281597318494319,0.9756249015539884
1647770445442422300,8.12342236328125,-2.0238608658105135,-8.714956002289057,-1.0058534510791302
1647770445452473000,8.13347314453125,0.2863052513092756,-9.355937445822358,-1.896034111842513
1647770445462524200,8.143524169921875,1.911629155859351,-9.63788450192213,-1.6931681912422178
1647770445472575200,8.1535751953125,2.819614937904477,-9.518706918355822,-1.2667033586144447
1647770445482626300,8.163626220703126,2.809752884581685,-8.989363310533761,-1.3591256217241285
1647770445492677000,8.173677001953125,2.3759996485114097,-8.07575325886607,-1.7893635431498287
1647770445502728200,8.183728271484375,2.1627719083726404,-6.988956970068812,-2.3649141908735034
1647770445512779300,8.193779296875,2.0245897646069526,-5.858875666296481,-3.188502026310563
1647770445522830300,8.203830322265626,1.633677891397476,-4.906729255485534,-4.207110914066433
1647770445532881200,8.213881103515625,1.266329849126935,-4.02278076710999,-5.04538193937242
1647770445542932200,8.22393212890625,1.0506295813947915,-2.96170402598083,-5.649892724120616
1647770445552983300,8.2339833984375,0.9287532602638006,-1.8565075726181268,-6.1960313993990415
1647770445563034400,8.244034423828126,1.06447105974257,-0.8270300848454236,-6.530248740962147
1647770445573085200,8.254085205078125,1.6255331633865833,0.17963351357281207,-6.729989807540178
1647770445583136300,8.26413623046875,2.4483804095894097,1.1430115124940872,-6.387804848098755
1647770445593187000,8.27418701171875,3.2177064934849735,2.05730662381649,-4.569844156017899
1647770445603238100,8.284238037109375,3.6984126193881033,2.3760598542660474,-1.7729162662178277
1647770445613289200,8.294289306640625,4.253559361508488,1.4538736974328756,0.04204641309082508
1647770445623340000,8.304340087890624,4.743027762798965,0.07075695926845073,0.1753375699445605
1647770445633391000,8.31439111328125,4.963457104879617,-1.018645712634921,-0.43005145894289015
1647770445643442200,8.324442138671875,4.614010630002618,-1.8779390677034853,-1.679870610512793
1647770445653493200,8.3344931640625,3.4613448617175218,-2.582946116423607,-2.4690131555125117
1647770445663544000,8.3445439453125,1.3853344142138957,-2.876891068831086,-2.191577731618285
1647770445673594000,8.354593994140625,-1.6162468641251324,-3.1823440882027145,-1.5366694695413112
1647770445683645200,8.364645263671875,-5.293557074251771,-3.7626696952432392,-1.1485194622606039
1647770445693696300,8.3746962890625,-9.200505476570129,-4.483442468371987,0.507576304911077
1647770445703747300,8.384747314453126,-12.902074514162539,-5.637357067674398,4.500490633806586
1647770445713798400,8.39479833984375,-16.038935785084963,-6.236591373324394,8.554418234330415
1647770445723849200,8.40484912109375,-18.373743006986377,-5.267563970339298,11.425972033786772
1647770445733900300,8.414900390625,-19.178439094948768,-2.943898904699087,12.398252885609864
1647770445743951400,8.424951416015626,-17.929150981515644,-0.12416297076344489,11.1704529658854
1647770445754002200,8.435002197265625,-15.28076062527895,2.4624779085248707,8.741799585551023
1647770445764053000,8.445052978515625,-12.146301739323139,4.570362626934052,5.648135651320219
1647770445774104000,8.45510400390625,-9.252274242252112,6.031974809664487,2.7015216424435375
1647770445784155100,8.465155029296875,-6.963747125488519,6.615556788152456,0.02937953148037195
1647770445794206200,8.475206298828125,-5.175688819718361,6.691556324249506,-2.278501689572632
1647770445804257300,8.48525732421875,-3.793323192182183,6.874476019886136,-3.6462235824674365
1647770445814308000,8.49530810546875,-2.856262122300267,7.074184353238344,-4.0741032503291965
1647770445824359200,8.505359130859375,-2.094876037623733,7.617657024177908,-3.876136499947309
1647770445834410200,8.51541015625,-1.3921528620570898,8.419118952524661,-3.344899333463609
1647770445844461300,8.52546142578125,-0.6154792649429291,8.907306958615779,-2.6993881375461815
1647770445854512000,8.53551220703125,-0.0010064736288040875,8.951959754812718,-1.6474629633828997
1647770445864563200,8.545563232421875,0.6440320632755756,8.567963360080123,-0.02774378350470215
1647770445874614300,8.5556142578125,1.560993178936839,7.913468939501047,1.4932660888835787
1647770445884665300,8.565665283203124,2.6095243267476556,7.093839486300945,2.5682944907367227
1647770445894716200,8.575716064453125,3.2078228128522634,6.233640706825256,3.046253948280215
1647770445904767200,8.585767333984375,3.3990357050597666,5.488710228517651,2.8752748658061025
1647770445914818300,8.595818359375,3.643729427564144,5.235220036095381,2.302233132163435
1647770445924869400,8.605869384765626,3.884797945308685,5.30784454280138,1.5873871187351642
1647770445934920200,8.615920166015625,3.7528199168801306,5.530847827023267,0.7773597527474164
1647770445944971300,8.62597119140625,2.9783155535638333,6.146612411713599,-0.2250590477079153
1647770445955022000,8.63602197265625,1.6751609715171156,6.9808660180717705,-0.9532048338226974
1647770445965073200,8.6460732421875,0.49626332212761043,7.259540920633077,-1.2034542907580732
1647770445975124200,8.656124267578125,-0.3177436150155961,6.777806036204099,-0.8340401097379624
1647770445985175300,8.66617529296875,-0.8226746661148965,5.6383297120988365,0.1750203206889331
1647770445995226400,8.676226318359374,-1.0009035735867917,4.190889847105741,1.5032421239748597
1647770446005277400,8.68627734375,-0.6792845784425735,2.516790513470769,3.167328305378556
1647770446015328500,8.69632861328125,0.24363982953727245,0.9540443533867597,4.375995946870744
1647770446025379000,8.706379150390624,1.1185396267995238,-0.34342005419433114,4.27343719741106
1647770446035430100,8.71643017578125,1.686213549798727,-1.2448141828894614,3.0137270586848257
1647770446045480200,8.726480224609375,1.3070283547401427,-1.0762480067759752,1.2067387192562222
1647770446055531300,8.73653125,0.21512889758497475,-0.2609972070515156,-0.5309336534924805
1647770446065582300,8.746582275390624,-1.2549562221974133,0.06847030963599682,-2.1377036642201244
1647770446075633400,8.75663330078125,-2.3442776455581185,-0.2598497905820608,-2.7116525758355854
1647770446085684200,8.766684326171875,-2.740100963945687,-0.7289683545440435,-2.160568991500884
1647770446095735300,8.7767353515625,-2.548970781585574,-1.044444170758128,-0.8994555618479847
1647770446105786400,8.786786376953126,-2.561382811652124,-1.469831729543209,0.3144998107887804
1647770446115837400,8.79683740234375,-3.4221769266724587,-1.8599492375046014,0.9782130183510481
1647770446125888300,8.80688818359375,-4.736605620796978,-1.7001701789587735,0.9029157122392207
1647770446135939300,8.816939208984374,-6.261165842610597,-0.8462807287603616,0.3321194925010204
1647770446145990400,8.826990478515626,-7.614511711889505,-0.11902034717798232,-0.6987777989417314
1647770446156041500,8.83704150390625,-8.200509519347548,0.05344166733026504,-1.7007625918939708
1647770446166092300,8.84709228515625,-7.469513458368182,-0.6449404102921485,-2.123770269805193
1647770446176143400,8.857143310546874,-5.485620445808768,-1.2065846977382897,-1.2794826145581901
1647770446186194200,8.867194091796875,-3.90457641249001,-1.1887813300222159,0.06868742298539728
1647770446196245200,8.877245361328125,-3.469481698682904,-1.1363532236486673,1.134117062094435
1647770446206296300,8.88729638671875,-3.3173768280267715,-0.8396826456695795,1.6312769677355885
1647770446216347100,8.89734716796875,-2.837873063650727,-0.16516133610606193,1.4025938843116164
1647770446226398200,8.907398193359375,-2.132281493040919,0.7801449995517731,0.8703235023226589
1647770446236449300,8.91744921875,-1.2469102783858776,1.6562679088681935,0.2670574569385499
1647770446246500400,8.927500244140624,-0.5448194093734026,2.2376982622802255,-0.2923300828230567
1647770446256551200,8.93755126953125,-0.12078501876294612,2.4874989525347946,-0.8157648136612028
1647770446266602200,8.947602294921875,-0.31959201936125753,2.8712673837304115,-1.1981699206143617
1647770446276653300,8.9576533203125,-1.411490599733591,3.4853497144222256,-1.4581597041890024
1647770446286704400,8.967704345703124,-2.2707933071523905,3.797847976130247,-1.7100782633803784
1647770446296755200,8.977755126953125,-2.437846156093478,3.9873482192009684,-1.681512678631395
1647770446306806300,8.98780615234375,-2.7222902897059917,4.022143638250231,-1.0724503680586814
1647770446316857300,8.997857421875,-3.3690894796073434,3.4209687199264764,0.4387682877533138
1647770446326908400,9.007908447265624,-3.837456348419189,2.1980729388564826,1.8879408217579126
1647770446336959500,9.01795947265625,-3.3794401932299136,1.2384382181167601,2.35009480740428
1647770446347010300,9.02801025390625,-1.9730898789942264,0.7699567830145359,1.7924957036957143
1647770446357061400,9.038061279296874,-0.39969489912390704,0.5864245084375143,0.417035910025239
1647770446367112400,9.048112548828126,0.36176761178970335,0.5036135387599467,-0.9023353550679981
1647770446377163300,9.058163330078125,-0.009065349987149238,0.6085188513457774,-1.911793406510353
1647770446387214000,9.068214111328125,-1.3239169456988573,1.0881517950594424,-2.14011773962453
1647770446397265200,9.07826513671875,-2.5263620594143865,1.5752204417318105,-2.2306756701670585
1647770446407316200,9.088316162109376,-3.2656022171258923,1.7841817565977571,-2.5269351831272244
1647770446417366300,9.0983662109375,-3.7675335018873213,1.8595307198315858,-2.9279256750196216
1647770446427417300,9.108417236328124,-4.103333144205808,1.8791998814195394,-2.947261366869509
1647770446437468400,9.118468505859376,-4.108797254830598,1.4339689735233783,-2.8488819489210844
1647770446447519200,9.128519287109375,-3.7542005575835704,0.855791484427452,-3.1156776131182906
1647770446457570300,9.1385703125,-3.1719857757955787,0.5100695830315352,-3.898181450755894
1647770446467621400,9.148621337890624,-2.9384096596330402,0.5335457356870175,-5.086564429110289
1647770446477672400,9.15867236328125,-3.785419287189841,1.1221481726855038,-6.312326121005415
1647770446487723300,9.16872314453125,-4.588400972449779,1.8510218346834182,-6.737365304744244
1647770446497774300,9.1787744140625,-5.1048728237390515,2.2624954344063997,-6.594740210095048
1647770446507825400,9.188825439453124,-5.465764821738004,2.40486918464303,-6.386759138438105
1647770446517876500,9.19887646484375,-5.3028457116007806,2.4497411765486,-6.2555690455168484
1647770446527927300,9.20892724609375,-4.359356654497981,2.29528126719892,-5.893759932672977
1647770446537978000,9.21897802734375,-2.8098598520874973,1.6489754137724637,-5.088091784808039
1647770446548029200,9.229029296875,-1.1916653610259293,0.6496890661239624,-4.403319130343198
1647770446558080300,9.239080322265625,0.03309796748161316,-0.3275152135759592,-4.46376103182435
1647770446568131300,9.24913134765625,0.7220844402492046,-0.907295461693406,-5.327783168980479
1647770446578182100,9.25918212890625,0.511317537266016,-0.7703232782393693,-6.27056027842164
1647770446588233200,9.269233154296876,-0.862617531055212,-0.17549919024705884,-6.753197664648294
1647770446598284300,9.2792841796875,-2.54233879622519,0.36224691973924633,-6.889110109916329
1647770446608335400,9.28933544921875,-3.851744986012578,1.0057149193912744,-7.088088959950208
1647770446618386200,9.29938623046875,-4.28832029376626,1.6706167522162199,-7.4455147431433195
1647770446628437200,9.309437255859375,-3.9422184531420466,1.8617519030123948,-7.532372357863188
1647770446638488300,9.31948828125,-3.0612609632760286,1.5962527083665132,-7.026414886325598
1647770446648539400,9.329539306640624,-2.186667747744918,1.2604121495157479,-5.558892018246651
1647770446658590200,9.339590087890626,-1.4946446837604046,0.5065624516934156,-4.307155342617631
1647770446668641300,9.349641357421875,-0.9655851535767316,-0.04917173492610454,-3.8562551569133996
1647770446678692400,9.3596923828125,-0.785544228246808,0.18269757731854916,-4.264418901436031
1647770446688743400,9.369743408203124,-1.1192115347117184,0.9312865781337022,-5.080383694648742
1647770446698794200,9.379794189453126,-1.5840589972257613,1.5700082600414753,-5.56172694941163
1647770446708845300,9.38984521484375,-2.288544652420282,2.119739406853914,-5.6967187727034085
1647770446718896400,9.399896484375,-3.1012966210663317,2.6599901931375265,-5.516085142177343
1647770446728947500,9.409947509765624,-3.375073230192065,2.9220518145501613,-5.25907437441349
1647770446738998300,9.419998291015625,-3.0563182461768386,3.0929584163099526,-5.0291906830281015
1647770446749049000,9.430049072265625,-2.4199586172252894,3.058271718332171,-4.347194507539272
1647770446759100200,9.44010009765625,-1.9207330842912196,2.684130947181582,-3.0811408450052142
1647770446769151200,9.450151123046876,-1.8565993425548075,2.322299622505903,-2.18032276263237
1647770446779202300,9.460202392578125,-1.581771178549528,2.2316262488901613,-1.8265367972463369
1647770446789252400,9.47025244140625,-1.516145736950636,2.5117870060950516,-1.725156443916261
1647770446799303200,9.48030322265625,-2.079787335693836,2.8570377828478812,-1.9168299393728374
1647770446809354200,9.490354248046875,-2.348406123664975,3.1625714662402866,-2.149053764143586
1647770446819405300,9.5004052734375,-2.0271113920390604,3.448421959519386,-2.2870111592426894
1647770446829456400,9.510456298828124,-1.5901041226088999,3.780038763195276,-2.279758703896403
1647770446839507500,9.520507568359376,-1.0430033243000507,3.753794899392128,-2.3134134284779426
1647770446849558300,9.530558349609375,-0.7568389427661896,3.6693607124269008,-2.255970416551828
1647770446859609300,9.540609375,-0.8673626797556877,3.684852880591154,-1.8104872874602675
1647770446869660400,9.550660400390624,-0.9519301377117634,3.4678654956579207,-1.0249933280959724
1647770446879711500,9.56071142578125,-1.1589859112173317,3.0082138482213017,-0.4718328644219786
1647770446889762300,9.57076220703125,-1.4246715683460234,2.632448690739274,-0.4047460450336337
1647770446899813000,9.580813232421875,-1.2633937956750392,2.356310028657317,-0.43087304099146273
1647770446909864200,9.5908642578125,-0.8569260414153337,2.1234709945976733,-0.2831927453119308
1647770446919915300,9.600915283203125,-1.416339793330431,2.092913359248638,0.2683835179105401
1647770446929966300,9.61096630859375,-1.7832582120120524,2.087922711354494,0.9907438524916767
1647770446940017200,9.62101708984375,-1.4985738399028776,1.77018888708055,1.629351260370016
1647770446950068200,9.631068115234376,-0.6928940016001462,1.4049749342292546,2.3643773075178265
1647770446960119300,9.641119384765625,0.17393150253891945,0.8839011421024798,3.0550545098513364
1647770446970170400,9.65117041015625,0.6423644223242998,0.3173147220790386,3.9073867937356233
1647770446980221400,9.661221435546874,0.8268997364640236,-0.37668110328316684,4.51493709231019
1647770446990272500,9.6712724609375,1.208464227874577,-1.1046978561908005,4.504206147198379
1647770447000323600,9.681323486328125,2.1149118405669927,-1.597086821103096,4.0822251819863915
1647770447010374700,9.691374755859375,3.204246123409271,-1.8931857366740703,3.655081719444692
1647770447020425500,9.701425537109374,4.376431123417616,-2.2586031031429767,3.4473303648903966
1647770447030476500,9.7114765625,5.583925337216257,-2.7363170614928007,3.06897957482934
1647770447040527600,9.721527587890625,6.350633347567916,-3.2313416356056925,2.556035605405271
1647770447050578700,9.73157861328125,6.732469349396228,-3.4630320841521023,2.368962004959583
1647770447060629500,9.74162939453125,6.546703616678714,-3.328673298066854,2.5481422218069434
1647770447070680600,9.7516806640625,5.4914376076549285,-2.823641124680638,2.8738553543969987
1647770447080731600,9.761731689453125,3.8149832353264093,-1.9946078833192586,3.2388322836220262
1647770447090782700,9.77178271484375,2.036819131582975,-1.0800187574863434,3.470134609633684
1647770447100833500,9.78183349609375,0.6793249104529618,-0.42370764287412166,3.395136944055557
1647770447110884600,9.791884521484375,-0.00010579846203327178,0.02224398051202297,3.150444682855904
1647770447120935700,9.801935791015625,-0.4165729686886072,0.39621348674893375,2.945253534178436
1647770447130986800,9.81198681640625,-0.9190998812556266,0.6024877544879913,2.6847183916807174
1647770447141037600,9.82203759765625,-1.5613240183264017,0.7356728206187486,2.3661980932042
1647770447151087600,9.832087646484375,-1.9714672462284564,0.9948504110276698,1.9151488544180988
1647770447161138400,9.842138427734374,-1.9466139600008725,1.3233172262400388,1.4105945276767016
1647770447171189500,9.852189453125,-1.423658007389307,1.3636463140189647,0.945778044822812
1647770447181240600,9.862240478515625,-0.4452063579767942,1.1128355699390173,0.6005932825108989
1647770447191291600,9.872291748046875,0.5568798495233058,0.8956143762499094,0.48291854125559325
1647770447201342500,9.882342529296874,1.5081015467047691,0.6419821450084447,0.5803647700071335
1647770447211393500,9.8923935546875,2.292964806950092,0.27868893108665943,0.5440320583879947
1647770447221444600,9.902444580078125,2.61540929313302,-0.14718611895442008,0.22357377758622168
1647770447231495700,9.91249560546875,2.4713930363863703,-0.4334481156438589,-0.2753338485050946
1647770447241546800,9.922546630859374,1.902932639184594,-0.5023223299056291,-0.8741987363208085
1647770447251597600,9.93259765625,1.5318845733523367,-0.49385085415840146,-1.5080489397346972
1647770447261648600,9.942648681640625,1.605753527161479,-0.4675508762538433,-1.9856290425717829
1647770447271699700,9.95269970703125,1.76595577955544,-0.4284703272312879,-2.5185160220891234
1647770447281750800,9.962750732421876,1.6817191609889268,-0.4618377593040466,-3.118181704893708
1647770447291801600,9.972801513671875,1.5033768562704324,-0.5114449630379676,-4.014761419044435
1647770447301852400,9.982852294921875,1.337069272738695,-0.5503378805339336,-4.7667491223871705
1647770447311903500,9.992903564453124,0.8271522499203682,-0.41368016985654826,-5.01108394845128
1647770447321954600,10.00295458984375,-0.22004794154763221,0.03797814073860645,-5.394432108408212
1647770447332005400,10.01300537109375,-1.5926999843209981,0.06926350584030151,-5.777635306936502
1647770447342056400,10.023056396484375,-3.5398832686424253,-1.0301549486428498,-5.433629561808705
1647770447352107500,10.033107421875,-5.098319164311886,-2.3021236804395913,-5.100406491979957
1647770447362158600,10.04315869140625,-5.109063845688104,-3.006941928589344,-5.370437484836578
1647770447372209700,10.053209716796875,-3.775421624788642,-2.401471358898282,-5.484824911516904
1647770447382260500,10.063260498046875,-2.3030583309412003,-2.4480396333277223,-3.9363922312065958
1647770447392311600,10.0733115234375,-2.7302596611499785,-2.7142133662343024,-2.4204876095354555
1647770447402362600,10.083362548828125,-4.104787434667348,-2.7101661366701126,-1.3416805659264326
1647770447412413700,10.09341357421875,-5.553183577471971,-1.6914122874855995,-1.3155826864652336
1647770447422464500,10.103464599609374,-6.211502524775266,0.022775310909748075,-1.5687660048954188
1647770447432515600,10.113515625,-6.639987465053796,1.475700913837552,-2.0420704762399193
1647770447442566700,10.123566650390625,-6.946212053319812,2.514047936764359,-2.6667598334029314
1647770447452617700,10.13361767578125,-6.851156519097089,3.246218302220106,-3.102691290295124
1647770447462668500,10.14366845703125,-5.575932000374793,3.5370535981744524,-3.043275224730372
1647770447472719600,10.1537197265625,-3.1634149313271043,3.2191093460202214,-2.435542409195751
1647770447482770700,10.163770751953125,-0.45341362982988354,2.3127222313433884,-1.4734616104781626
1647770447492821800,10.17382177734375,1.6589438500791787,1.236058629503846,-0.3359809171695262
1647770447502872600,10.18387255859375,2.46842892588377,0.4714870466589927,0.48713820477724074
1647770447512923400,10.19392333984375,2.1741700852215287,0.4310205962359905,1.0931341135166586
1647770447522973400,10.203973388671875,1.2565963906198738,1.046964044624567,1.4257012036547063
1647770447533024500,10.2140244140625,-0.3747790690541267,1.906388332596421,1.4972254940338432
1647770447543075600,10.22407568359375,-1.9717828880488872,2.608427179160714,1.4167534886978566
1647770447553126700,10.234126708984375,-2.6514848151206967,3.244685101303458,1.2327388374313712
1647770447563177500,10.244177490234375,-2.118070012336969,3.4531688617855307,1.0501648864924906
1647770447573228500,10.254228515625,-0.9515478603959083,2.7277356956303116,1.74986520710662
1647770447583279600,10.264279541015625,0.6845324159681797,1.9090362167567014,1.892146310623735
1647770447593330700,10.27433056640625,1.4657465060561894,0.9554793546259402,2.535697458514571
1647770447603381800,10.2843818359375,1.4739993706166743,0.524913516420126,2.8583874438911674
1647770447613432600,10.2944326171875,1.0443494782119989,1.3006412840515373,0.9968278485804796
1647770447623483600,10.304483642578125,1.9655302573949098,1.3536311159610748,0.7215973873846232
1647770447633534700,10.31453466796875,3.015140432614088,0.8072861044555902,1.6074058244131504
1647770447643585800,10.324585693359374,4.687745143777132,0.6307423735916614,2.0283312892228365
1647770447653636600,10.33463671875,5.09029192520082,1.058459836629033,3.1070413021981715
1647770447663687400,10.3446875,3.104074853608012,-0.7095709956347942,4.64265220259726
1647770447673738500,10.354738525390625,3.130713269686699,-1.7145441567480564,5.559112967520952
1647770447683789600,10.36478955078125,4.601006187000871,-0.8474509415835142,3.704709673705697
1647770447693840400,10.37484033203125,3.2304432254612445,-0.2802154100015759,2.6209587439537048
1647770447703891500,10.384891357421875,1.7397253597557543,1.0665127947032451,1.2511096297718585
1647770447713942500,10.394942626953124,0.5336217235326767,2.8862819975107907,2.0554238788098096
1647770447723993600,10.40499365234375,-0.9487807337701321,3.502912551380694,2.9369711512625214
1647770447734044700,10.415044677734375,-2.374359480088949,2.887039830140769,3.5418840870708226
1647770447744095500,10.425095458984375,-2.9112171168029306,2.1048671241536736,4.010510775862634
1647770447754146600,10.435146484375,-2.718013343039155,1.7240230559721588,3.6373774281889197
1647770447764197600,10.44519775390625,-1.0795365269273518,1.284274671140313,3.618798107664287
1647770447774248700,10.455248779296875,1.0375631790727375,0.591111789470911,3.5339383887633677
1647770447784299500,10.465299560546875,2.092041837111115,-0.07237520812004804,2.755429173719883
1647770447794350600,10.4753505859375,2.293299153470993,-0.5923047986477613,1.357119104207307
1647770447804401700,10.485401611328125,2.1869623467773196,-0.9379895829036832,0.6616559827715158
1647770447814452700,10.49545263671875,1.619765101379156,-1.2214715934857725,0.8270959166232495
1647770447824503600,10.505503662109374,1.3247060502499342,-1.3681436254382133,1.276139295479655
1647770447834554600,10.5155546875,0.7474433379113674,-1.0469918094143271,1.4910494357474147
1647770447844605700,10.525605712890625,-0.8837374759733676,-0.33746845231354233,2.0069358883641657
1647770447854656800,10.53565673828125,-2.401933715713024,-0.37862405404448507,2.5382456816926595
1647770447864707600,10.54570751953125,-3.586348667219281,-0.34288930831849573,3.5161335597425696
1647770447874758400,10.55575830078125,-5.092618906843662,0.14809242014437912,4.359678141537309
1647770447884809500,10.5658095703125,-6.131186879044771,-0.012376081970334052,4.171550063602626
1647770447894859500,10.575859619140624,-5.5442438996911045,-0.2856348047018051,3.454109065245092
1647770447904910600,10.58591064453125,-4.287746877792477,-0.059170566371083255,2.2975725930064916
1647770447914961700,10.595961669921875,-3.360127589994669,0.15737959618866443,1.024844859535992
1647770447925012500,10.606012451171875,-2.4215900178194043,-0.034950317350029944,0.3144407740779221
1647770447935063600,10.6160634765625,-1.2454518962711094,-0.29042350028306246,0.11037263808101415
1647770447945114600,10.626114501953126,-0.2862923918277025,-0.41442046682983635,-0.1545310748897493
1647770447955165700,10.636165771484375,-0.32335634033083915,0.07244710431247949,-0.6686024409085511
1647770447965216500,10.646216552734375,-0.7549854238539934,-0.3549477026417851,-0.8659490135654807
1647770447975267600,10.656267578125,-0.22413374955654142,-1.0099188008219002,-0.4114157320559025
1647770447985318700,10.666318603515625,0.2638093418627977,-1.004122681763768,-0.29917291618883607
1647770447995369700,10.67636962890625,0.595973842549324,-1.2542831452414394,-0.10060732313096522
1647770448005420800,10.6864208984375,0.5989081424355507,-0.9069085082024335,-0.1522501243457198
1647770448015471600,10.6964716796875,0.3045557782709598,-0.394857103703916,-0.6953162603110075
1647770448025522700,10.706522705078125,-0.4730348606228828,0.19566811805069445,-1.2595230917215348
