time,seconds_elapsed,z,y,x
1647770468946699000,0.011698974609375,-1.8254168533056974,0.4400897456154227,0.5233529891051352
1647770468956749800,0.021749755859375,-1.2337129431605338,0.2995844195991754,0.38706381947919727
1647770468966801000,0.03180078125,-0.23091771060824393,0.06267828223109245,0.6157179690696298
1647770468976852000,0.04185205078125,0.9807125800818204,-0.10913286715298891,0.7660157903037965
1647770468986903000,0.051903076171875,2.005796801331639,-0.15942980671674012,0.6907689722701906
1647770468996953900,0.061953857421875,2.8077760315507647,-0.002782324194908142,0.5012392839092761
1647770469007004000,0.07200390625,3.2121523664891716,-0.13210311611294745,0.4336169694047421
1647770469017054700,0.0820546875,3.1719045272529125,-0.5515238754481077,0.5245670410700142
1647770469027105800,0.092105712890625,2.796777667674422,-0.7931585026428103,0.5960072333622723
1647770469037156900,0.102156982421875,2.1155618289083242,-0.8562079562738537,0.7655365554194897
1647770469047208000,0.1122080078125,1.3912445150405168,-0.8054749633803964,0.938309754768759
1647770469057258800,0.1222587890625,0.8137614379495381,-0.6939601695269346,0.910222601186484
1647770469067309800,0.132309814453125,0.6358955185711384,-0.6790563226446509,0.8389327771503478
1647770469077361000,0.14236083984375,0.5053600901663303,-0.8619728034108877,0.7951694040738045
1647770469087412000,0.152411865234375,0.10767360825538634,-0.9799176303118466,0.7801686726883054
1647770469097462800,0.162462890625,-0.1175619650632143,-0.8070064107313751,0.8559019590646028
1647770469107513900,0.172513916015625,0.059579731693863866,-0.5224506334379315,0.8864131979886442
1647770469117565000,0.18256494140625,0.27087036629021166,-0.30179537364691494,0.8725399362631142
1647770469127616000,0.192615966796875,0.09264730403721332,-0.09819441677033901,0.9699369190454482
1647770469137666800,0.202666748046875,-0.18001754445433615,0.12400953376740216,1.268560823049396
1647770469147718000,0.2127177734375,-0.31483868735432624,0.1373752112969756,1.1756296605695038
1647770469157769000,0.22276904296875,-0.34378771846294404,-0.21614333532452581,0.4488382847383618
1647770469167820000,0.232820068359375,-0.4637415470987558,-0.3188654586523771,-0.2841185549199581
1647770469177871000,0.24287109375,-0.7277443657070398,-0.019359949508309365,-0.7906435972124337
1647770469187922000,0.252921875,-1.0482909093141555,0.37014205690324303,-1.4309101704746483
1647770469197972700,0.26297265625,-1.1413859571188687,0.4707523026436567,-1.290952395338565
1647770469208023800,0.27302392578125,-1.1082716230243443,0.198746210321784,-1.0010751307614147
1647770469218075000,0.283074951171875,-0.8757517379164695,0.12944938673377035,-1.0006595356978476
1647770469228125700,0.293125732421875,-0.6705997522056102,0.07748977465480565,-0.060564797208458185
1647770469238176800,0.3031767578125,-0.9613345103949308,-0.03218611333370208,0.9513066720511764
1647770469248227800,0.313227783203125,-1.1570710175067185,-0.2828720619902015,1.1803065663393586
1647770469258279000,0.32327880859375,-1.0911258424341679,-0.842655377870053,0.337726518727839
1647770469268330000,0.333330078125,-0.8884177427440881,-0.8272203467205166,0.0019892741210758686
1647770469278380800,0.343380859375,-0.6638093614131212,-0.14897007976174353,-0.004700871167331934
1647770469288431900,0.353431884765625,-0.5630529852002859,0.3428891621880233,-0.46611624034084376
1647770469298483000,0.36348291015625,-0.4041495404452085,0.2675809693560004,-0.9315040933419019
1647770469308534000,0.373533935546875,0.01632978803217411,-0.08662249078974127,-1.522317557453364
1647770469318584800,0.383584716796875,0.6027578036010265,0.6037142275430262,-1.5329847896791993
1647770469328636000,0.393635986328125,0.8975181640446186,1.4656030059322713,-1.1000194891162216
1647770469338687000,0.40368701171875,0.9163660723775625,1.1984203882440925,-0.7745919685345143
1647770469348738000,0.413738037109375,0.7614771239608525,0.4723755199313163,-0.33240481224842366
1647770469358788900,0.423788818359375,0.2859825952261686,-0.3112739806100726,0.2618540430765599
1647770469368840000,0.43383984375,-0.4010480672985315,-0.8790553095065057,0.9424106142163277
1647770469378891000,0.44389111328125,-0.7466589095354079,-1.3297643565528094,1.7075787016496062
1647770469388942000,0.453942138671875,-0.5463806673407554,-1.5609930328063666,2.2606889695063233
1647770469398993000,0.463992919921875,0.28178981971144673,-1.1459779610842467,2.6011037044048306
1647770469409043700,0.474043701171875,2.4874229646891353,-0.4874003628447652,2.623662742215395
1647770469419094800,0.4840947265625,3.3605168815732,-1.9601783749729393,2.1771716051250696
1647770469429145900,0.494145751953125,1.9174696985810995,-3.775858847162127,0.7939293408848345
1647770469439197000,0.504197021484375,0.044347091248631475,-4.775881107869744,-0.3856693329134956
1647770469449247700,0.514247802734375,-0.6997007590055465,-1.5160536747530102,0.8180348044198006
1647770469459298800,0.524298828125,-1.6651386130660772,2.3580437205821276,1.3854615477249026
1647770469469350000,0.534349853515625,-1.559881418302655,3.8319817164003847,1.240599049412459
1647770469479401000,0.54440087890625,-0.2637923907279968,3.7037872981637716,0.16208269584570079
1647770469489451800,0.55445166015625,-1.1703718131065368,0.7676623884670436,-0.9686926911380142
1647770469499502800,0.5645029296875,-1.004587376666069,0.061028323066979646,0.19892096410049123
1647770469509554000,0.574553955078125,0.03381283775269985,0.15039236764982342,1.3439035026729107
1647770469519605000,0.58460498046875,0.43248423904776573,-0.2931729451216757,1.4908597583942114
1647770469529655800,0.59465576171875,0.05715513489544391,-0.48369960863068695,1.673677747222036
1647770469539707000,0.604706787109375,-0.517813329026103,-0.1370524090833962,2.1841721315369007
1647770469549758000,0.614758056640625,-0.7947919490635394,0.07321180507466196,2.377526711948216
1647770469559809000,0.62480908203125,-0.5638064339160919,0.01670183621495962,2.2042577649712563
1647770469569860000,0.634860107421875,-0.32665421283245083,0.2943807134762406,2.583311150343716
1647770469579911000,0.644910888671875,-0.6081868429124355,0.5442772653207183,2.666616917800903
1647770469589962000,0.6549619140625,-0.8236474566698074,0.6354853303350508,2.6697233593836427
1647770469600012800,0.6650126953125,-0.9082622608989477,0.5056979438185691,2.519949854284525
1647770469610064000,0.67506396484375,-1.0330968473136424,0.6934940133199096,2.789407431167364
1647770469620114700,0.68511474609375,-1.086649573802948,1.202387099917978,3.4993133578449487
1647770469630165800,0.695165771484375,-1.6465443872332572,1.5200313462123274,4.221384061829745
1647770469640216800,0.705216796875,-2.9871207913100717,2.0333895955257115,4.248913873790205
1647770469650268000,0.715267822265625,-4.068353016239405,2.346967469163984,3.3236396878138184
1647770469660319000,0.725319091796875,-2.788763872566819,1.925602882284671,3.5305730039834975
1647770469670369800,0.735369873046875,-2.338387418475747,1.2145510004423559,3.1984020735561844
1647770469680420900,0.7454208984375,-2.059310949376225,1.3044777934744953,2.970444674058258
1647770469690472000,0.755471923828125,-1.9905606537550686,1.7210510544240474,2.689100260026753
1647770469700523000,0.76552294921875,-2.0192764606297016,1.9294199563547967,2.437382776365429
1647770469710573800,0.77557373046875,-1.6876432903409002,1.999662390229851,2.3400015756741164
1647770469720625000,0.785625,-1.4284674534976483,1.960380619546771,2.0830694261044265
1647770469730676000,0.795676025390625,-1.5476052895754575,2.1410233101621268,1.7983724867746234
1647770469740727000,0.80572705078125,-1.6211270373821258,2.454744391663372,1.5495356731161474
1647770469750777000,0.815777099609375,-1.3635586357355116,2.5915906106501816,1.4166810079835355
1647770469760829000,0.825828857421875,-1.1029834534883498,2.3689357014745474,1.127245203563571
1647770469770878700,0.835878662109375,-0.6881973682165146,2.466328446473181,1.037734517051652
1647770469780931000,0.84593115234375,-0.19718729044198988,2.6340491116732356,1.1790831620242446
1647770469790980900,0.85598095703125,0.1996756001263857,2.5272204298093914,0.9556135023996233
1647770469801032000,0.866031982421875,0.45367900276780126,2.2445184636890887,0.6926924876786767
1647770469811082800,0.876082763671875,0.2796750195145607,2.0517925365701317,0.5551035605657846
1647770469821133800,0.8861337890625,-0.2793383349061012,2.0229250462651254,0.4914594289772212
1647770469831185000,0.896184814453125,-0.4238496816933155,1.9829180300474165,0.5115237273626029
1647770469841236000,0.906236083984375,-0.08817688062489032,1.8431231903880834,0.39478710720762605
1647770469851286800,0.916286865234375,0.26032208426892756,1.6918211605474351,0.057343789335340255
1647770469861337900,0.926337890625,0.4658645306020975,1.7719842460647224,-0.3347454570904374
1647770469871389000,0.936388916015625,0.6906050138801336,1.8760799958333372,-0.7561867624677717
1647770469881440000,0.94643994140625,0.6174906778305769,1.9436425429746507,-1.0221563511043787
1647770469891490800,0.95649072265625,0.4247422466188669,1.848976008069515,-1.06616792678833
1647770469901542000,0.9665419921875,0.6332289297103881,1.5854691562846301,-0.845377350179851
1647770469911593000,0.976593017578125,1.0181786796450614,1.204273790447414,-0.5670496536210179
1647770469921644000,0.98664404296875,1.6139023468255995,0.935749987283349,-0.2875526210218668
1647770469931695000,0.996695068359375,2.242852576303482,0.7349240480780601,-0.02737652109488845
1647770469941746000,1.006745849609375,2.616092014700174,0.6415051751464605,0.0757037680208683
1647770469951796700,1.016796630859375,2.7961037139356133,0.6232379893109202,-0.08103460765480995
1647770469961847800,1.026847900390625,2.731497678512335,0.725489280256629,-0.3355035819813609
1647770469971899000,1.03689892578125,2.087020209556818,0.9845230782806873,-0.5269000140622258
1647770469981949700,1.04694970703125,0.9496189381599426,0.8738304144650697,-0.9403585039921104
1647770469992000800,1.057000732421875,0.4033271181464195,0.8227028692960738,-1.1090510829642415
1647770470002051300,1.06705126953125,0.6091787765592336,0.9360568612754344,-1.0385365541495382
1647770470012102400,1.077102294921875,1.0937526838064193,1.0108715715020895,-0.8155072587035596
1647770470022153500,1.087153564453125,1.655526735112071,0.840035989151895,-0.5598182410627603
1647770470032204300,1.097204345703125,2.0219448030561207,0.5742804816573858,-0.210333480001986
1647770470042255400,1.10725537109375,2.178069430747628,0.4525964682281017,0.3730956460118294
1647770470052306400,1.117306396484375,2.467232994097471,0.3395513960674405,0.6585149082668125
1647770470062357500,1.127357421875,2.6571768892824648,0.229755681091547,0.5674712400339543
1647770470072408300,1.137408203125,2.574496852508187,0.36921471292525526,0.42053281223028893
1647770470082459400,1.14745947265625,2.30020469507575,0.5388584551423787,0.2994477876074612
1647770470092510500,1.157510498046875,1.9442448927819729,0.43250411279201506,-0.2773161814287305
1647770470102561500,1.1675615234375,1.6625550263136624,0.2609656428694725,-1.0724750641085208
1647770470112612600,1.177612548828125,1.2715297558575869,0.005648819541931152,-1.5897800052210687
1647770470122663400,1.187663330078125,1.1253472609877586,0.05083996039927006,-1.6408412071555851
1647770470132714500,1.197714599609375,1.2357143461108206,0.3091296620577574,-1.2603648032426833
1647770470142765600,1.207765625,1.137519344818592,0.013710545444488525,-0.6034387716025114
1647770470152816600,1.217816650390625,1.2370189989686011,-0.6171706520959734,-0.10164795475769788
1647770470162867500,1.227867431640625,1.2698890029132366,-1.0198130028486252,-0.14884250785931943
1647770470172918500,1.23791845703125,1.6363023946821689,-1.004113621674478,-0.044400757664628324
1647770470182969600,1.247969482421875,2.1266110461890695,-0.5260527495831251,0.29499036980718374
1647770470193020700,1.258020751953125,2.2918390177905557,0.15054770434200762,0.36623803520202636
1647770470203071200,1.2680712890625,2.3133488388091323,0.4415916746109724,0.1601337172023952
1647770470213122300,1.278122314453125,2.6216338667362926,-0.2555266666859388,0.08404076720084995
1647770470223173400,1.28817333984375,3.0951684935748576,-0.1844984892606735,-0.6600982319355011
1647770470233224400,1.298224365234375,2.7629151455610987,0.16103753417432307,-1.3555493706725537
1647770470243275500,1.308275634765625,2.032723971223831,0.6672627167373896,-0.9849944951847195
1647770470253326300,1.318326416015625,1.2766893305778502,0.6476385633349419,-0.2821804264642298
1647770470263377400,1.32837744140625,0.6841507231742143,-0.024492051699757576,0.4279550711855292
1647770470273428500,1.338428466796875,-0.06338380015194416,-0.7282695586249232,1.3961224963404237
1647770470283479600,1.3484794921875,-0.7396610134720802,-0.9627426236271858,1.8395470854669809
1647770470293530400,1.3585302734375,-1.1055723009377718,-1.03806236076653,1.4572376209080218
1647770470303581400,1.36858154296875,-1.1798188558876515,-0.8406967911481856,1.125319350067526
1647770470313632500,1.378632568359375,-1.0343132373660802,-0.3270814983338117,1.263890347020328
1647770470323683600,1.38868359375,-0.900738295134902,-0.1514522519662976,1.4834142646938562
1647770470333734400,1.398734375,-0.5116752646625041,-0.2425844752654433,1.4099907165646552
1647770470343785500,1.408785400390625,-0.19847323859930038,-0.2900505753174424,1.1015311357881874
1647770470353836500,1.41883642578125,-0.07372691498994827,-0.4608534244418144,0.9238152924049645
1647770470363887600,1.4288876953125,-0.03332183936536312,-0.9257610927104949,0.8945563916295767
1647770470373938700,1.438938720703125,-0.014205050963163376,-1.357515848439932,0.8775441012259573
1647770470383989500,1.448989501953125,-0.037030630755424496,-1.4511559629067778,1.0206965807501227
1647770470394040600,1.45904052734375,-0.0439016855686903,-1.4099934930436313,1.209395809636265
1647770470404091400,1.46909130859375,-0.31921967891752717,-0.8394220950372516,2.145065425159782
1647770470414142500,1.479142578125,-1.372653796339035,-0.04017389721721411,3.36107626902163
1647770470424193300,1.489193359375,-2.484111063662171,-1.659655067088455,1.6265601683467625
1647770470434244400,1.499244384765625,-3.7775516225546597,-2.286327122501284,0.6129387136146426
1647770470444295400,1.50929541015625,-5.7703457344502205,-0.7570724592611193,0.9265032893799244
1647770470454346500,1.519346435546875,-8.165569138869643,1.3934589762195944,1.8191354349486528
1647770470464397300,1.529397216796875,-8.952659427514671,2.2172413113154468,1.4918608982607722
1647770470474448400,1.539448486328125,-8.075265767610073,2.2365365250244738,1.1999387569177895
1647770470484499500,1.54949951171875,-6.6072355345308775,1.4361262976877391,0.9370159155659377
1647770470494550500,1.559550537109375,-5.290125346237421,0.7242306584976613,0.6617390579450875
1647770470504601600,1.5696015625,-5.345968229490518,1.516155819953233,1.700847932089865
1647770470514651600,1.579651611328125,-5.754577671954036,1.1916506018482147,0.7879550887808203
1647770470524703500,1.589703369140625,-6.493014696589112,1.785844575243443,1.7357259148560464
1647770470534753500,1.59975341796875,-7.058847667896747,1.9996748113200067,1.8023096800930798
1647770470544804600,1.6098046875,-7.058871633294224,2.377502746550739,1.3364328745312988
1647770470554855700,1.619855712890625,-7.080068150579929,3.0753935335248705,1.287941376954317
1647770470564906200,1.62990625,-6.783854084196687,3.5694133145093914,0.950242915277183
1647770470574957300,1.639957275390625,-5.806048331472278,3.779053843811154,0.5322187248669564
1647770470585008400,1.65000830078125,-4.316941992616653,3.37021526876688,-0.024723522368073462
1647770470595059500,1.6600595703125,-2.4466478867083787,2.898410826721787,-0.49868572696894403
1647770470605110500,1.670110595703125,-0.7749632129997015,2.345508356396854,-0.6178915137164295
1647770470615161300,1.680161376953125,0.445454779779911,1.6422890678763389,-0.1897263069115579
1647770470625212400,1.69021240234375,0.8892267210394144,1.0232347939908504,0.30870369173064827
1647770470635263500,1.700263427734375,0.48616088417768477,0.49236909116804595,0.5899496138237417
1647770470645314600,1.710314453125,0.07222294016778469,0.21472966913431882,0.5941337676405907
1647770470655365400,1.720365478515625,0.42232641764879225,0.1257224751651287,0.19506401467770337
1647770470665416400,1.73041650390625,0.7866384532243013,-0.05149608622044324,-0.23977438628077505
1647770470675467500,1.740467529296875,0.5545405929207802,-0.5014744809046388,-0.4401403067588806
1647770470685518600,1.7505185546875,0.03502747423946857,-0.7030030154213309,-0.41483299315348265
1647770470695569400,1.7605693359375,-0.8937059122800827,-0.6725111387848853,-0.47669016826003785
1647770470705620500,1.770620361328125,-2.0505898827821016,-0.4697304122500121,-0.9213330471351742
1647770470715671600,1.780671630859375,-2.760611544793844,-0.0773192403934896,-1.3680194145366549
1647770470725722600,1.79072265625,-3.1118501637846228,0.029641689547896383,-1.5311640039928256
1647770470735773400,1.8007734375,-3.514760517823696,-0.4684833347983658,-1.4601258896954357
1647770470745824500,1.810824462890625,-3.334861631312966,-1.1420600569881498,-1.4773196010805665
1647770470755875600,1.82087548828125,-2.876079752448201,-1.5729278007499872,-1.479675078165531
1647770470765926400,1.830926513671875,-2.956523408472538,-1.9557221262164413,-1.241593321146816
1647770470775977500,1.8409775390625,-3.840113000407815,-2.3291518264882267,-0.8465120532982051
1647770470786028300,1.8510283203125,-5.198889662563801,-2.4422692332327363,-0.3266087662555277
1647770470796079400,1.861079345703125,-6.561815845614671,-2.380965746486187,0.14514248429760335
1647770470806130400,1.87113037109375,-7.266593761754035,-2.2775857437714935,0.2835698349960148
1647770470816181500,1.881181396484375,-7.0996028721332545,-1.9756104835130273,0.10199322453141212
1647770470826232300,1.891232421875,-6.56263885243535,-1.6551549791902302,-0.4485352101385593
1647770470836283400,1.901283447265625,-6.183654148384928,-1.3450607098840177,-0.9145920484423636
1647770470846334500,1.91133447265625,-5.515439245489239,-1.0325737732876092,-1.1040535669378935
1647770470856385500,1.921385498046875,-4.248040305826068,-0.851465218726173,-1.0922338036760688
1647770470866436600,1.9314365234375,-2.8843203420490027,-0.7644689261879771,-0.9337247650660574
1647770470876487400,1.9414873046875,-1.7674375425457953,-0.6916920784644782,-0.9385632911384105
1647770470886538500,1.95153857421875,-0.8561106333792209,-0.5576294988468289,-1.1021043325662612
1647770470896589600,1.961589599609375,0.0009708908587694168,-0.46697366088777775,-1.1407782004840672
1647770470906640600,1.971640625,1.0496335560947656,-0.48980640107318757,-1.2417762764982878
1647770470916691500,1.98169140625,2.1663263859838247,-0.6144096629500388,-1.4884075429365038
1647770470926742500,1.991742431640625,3.4400200418770313,-0.9263375774241983,-1.7139307010248301
1647770470936793600,2.001793701171875,4.500981632193922,-1.3900184803768991,-1.7996112347893416
1647770470946844700,2.0118447265625,4.850214172059297,-1.748657438752055,-1.8934315281286835
1647770470956895500,2.0218955078125,4.5803795785576105,-1.8640123952902852,-1.9099214751586318
1647770470966946300,2.0319462890625,4.227177550539374,-1.736533724107593,-1.675494441255182
1647770470976997400,2.041997314453125,3.919563553741574,-1.611741661660373,-1.504842398778349
1647770470987048400,2.05204833984375,3.6651866416126486,-1.4773112716436385,-1.5497861407458782
1647770470997099500,2.062099609375,3.522037815350294,-1.287046181680262,-1.7464853554099797
1647770471007151400,2.0721513671875,3.5487329300522803,-1.1185934028133748,-2.101844561462104
1647770471017202400,2.082202392578125,3.748014562425017,-0.8931021011680365,-2.2807617434591054
1647770471027253500,2.09225341796875,4.698601468834281,-0.43947453632652755,0.8467818101502954
1647770471037304300,2.10230419921875,3.6565035689413548,-0.4803673954680562,-1.7193873589955269
1647770471047355400,2.11235546875,4.195360855039954,-1.065658808222413,-4.334073452420532
1647770471057406500,2.122406494140625,5.404193039444088,-1.1998445758283138,-3.607486732316017
1647770471067457500,2.13245751953125,6.187600255662202,-0.9589128362059592,-3.3029452748313544
1647770471077508400,2.14250830078125,6.555945492276549,-0.9216910667926073,-3.3185891264259815
1647770471087559400,2.152559326171875,6.386706531468033,-1.128878942245245,-3.136160429176688
1647770471097610200,2.1626103515625,5.693422653767466,-1.2628344082266092,-2.5992145296573637
1647770471107661300,2.172661376953125,4.744624968862533,-0.9243713919177651,-1.9900439364045857
1647770471117712400,2.18271240234375,4.167162934559584,-0.21159809311032293,-1.7761556865304708
1647770471127763200,2.19276318359375,4.094363655808568,0.35530221516788,-1.8390493650779127
1647770471137814300,2.202814208984375,3.5129759724944827,0.06894435688853263,-2.272253735093772
1647770471147865300,2.212865234375,4.2720565567076205,0.2937973606303334,-2.7683301563471554
1647770471157916400,2.22291650390625,4.926843238231539,0.16609803243428467,-3.5221138031959534
1647770471167967200,2.23296728515625,2.131485374227166,-0.20904256340861319,-5.394873422434926
1647770471178018300,2.243018310546875,1.418357562893629,-0.46131665803939104,-4.844597793482244
1647770471188069400,2.2530693359375,2.3524971923708913,-0.02546469612419605,-3.205749513709545
1647770471198120400,2.263120361328125,1.5017489628076552,-0.12317279068231582,-3.026365298722684
1647770471208171300,2.273171142578125,1.3101941252946854,-0.4288672175943851,-2.3042867036923766
1647770471218222300,2.283222412109375,0.5709440307110548,-0.8665764978140592,-1.9746575667023658
1647770471228273400,2.2932734375,0.6208914261847734,-1.4148726433873176,-0.7460302562430501
1647770471238323500,2.303323486328125,0.14742343484163284,-2.082991684693098,0.3470134025111794
1647770471248374500,2.31337451171875,-0.4576771324932575,-2.1944208460897205,1.4316881691098213
1647770471258425300,2.32342529296875,-1.067879991403222,-1.3389748140990734,2.6250977434545755
1647770471268476200,2.33347607421875,-1.341491180834174,0.0032429274439811705,3.0169369606420395
1647770471278527200,2.34352734375,-1.070768698582053,1.0256856942743062,2.5581086122870444
1647770471288578300,2.353578369140625,-0.2489180622011423,1.8474241024523972,2.0844415912404655
1647770471298629400,2.36362939453125,0.9879670812547207,2.712546309804916,1.4644149651914835
1647770471308680200,2.37368017578125,2.2615695517331362,3.5576731923550367,0.48278147087246176
1647770471318731300,2.383731201171875,3.131663702279329,4.420815039545297,-0.7201654548853635
1647770471328782300,2.3937822265625,3.3169740924447773,4.825967035031319,-0.7900678431510925
1647770471338833400,2.40383349609375,4.307205611500144,4.741428803169727,-0.7877338472455739
1647770471348884200,2.41388427734375,5.334540826547146,5.376711158278584,-2.7716978792145848
1647770471358935300,2.423935302734375,4.91263058848381,6.127111592429876,-2.18573981924504
1647770471368986400,2.433986328125,4.33662401368618,5.607094031357765,-1.0481567615404725
1647770471379037400,2.444037353515625,3.862470378166437,4.967675599357485,-1.0536115198150275
1647770471389088500,2.454088623046875,3.374711411142349,4.94489385870695,-1.2369491486027837
1647770471399139300,2.464139404296875,3.3559482584834095,5.149938292390107,-0.820744428704679
1647770471409190400,2.4741904296875,3.588519581517577,5.4601031427145,0.12938333576023578
1647770471419241500,2.484241455078125,3.6492853081256147,5.596586665868759,0.46700580959171056
1647770471429292500,2.49429248046875,3.2296038520276547,5.2317415463298556,0.2586135267853737
1647770471439343400,2.50434326171875,1.5460393554329872,4.548309785079955,0.2303741052508354
1647770471449394400,2.51439453125,-0.5491150607407093,4.179270136460661,0.5846165822327136
1647770471459445200,2.5244453125,-1.9190888242155313,3.8797432922676203,1.49786072319746
1647770471469496300,2.534496337890625,-2.462905778548121,3.375643723556399,2.477512980571389
1647770471479547100,2.544547119140625,-2.5264170044720173,2.674254280811548,2.7642396721631286
1647770471489598200,2.55459814453125,-2.175530852180719,1.929887866127491,2.2304642193734643
1647770471499649300,2.564649169921875,-1.374203363868594,1.3154568681284784,1.607200218838453
1647770471509700400,2.574700439453125,-0.3641793491065502,0.7678712089121341,1.180632510358095
1647770471519751400,2.58475146484375,0.34394261676371096,0.23333996931910514,0.9696598556697368
1647770471529802200,2.59480224609375,0.5745470236390828,-0.021894436421990394,1.1303601207137106
1647770471539853300,2.604853271484375,0.4380272601276636,-0.35234131953567266,1.3994950415134428
1647770471549904400,2.614904296875,-0.010872691670060157,-0.9914096229240298,1.781535626003146
1647770471559955500,2.62495556640625,-0.5259937128722667,-1.5272691885113716,2.106546747803688
1647770471570006300,2.63500634765625,-0.9324041839867829,-1.8201970728307961,2.240074928283691
1647770471580057300,2.645057373046875,-1.2418658544778822,-1.9956004014879465,2.0208967553079127
1647770471590108400,2.6551083984375,-1.3346341545462608,-2.118981428093463,1.4973638795912265
1647770471600159500,2.665159423828125,-1.2956781086862086,-2.248979680881649,0.9617623804181814
1647770471610210300,2.675210205078125,-1.2000742929309607,-2.5144337212115526,0.6087351244449615
1647770471620261400,2.685261474609375,-1.0600760396540165,-2.877212555870414,0.3991875341236591
1647770471630312400,2.6953125,-0.8678899185001849,-3.1779210110634564,0.1735492252230644
1647770471640363500,2.705363525390625,-0.5837175875663757,-3.392642204630375,-0.0646235710799694
1647770471650414300,2.715414306640625,-0.2116694047808647,-3.275650148409605,-0.2671025381892919
1647770471660465200,2.725465087890625,-0.24108605340123176,-3.421424062478542,-0.7751257100850343
1647770471670516200,2.73551611328125,-1.0683709897905587,-4.200937486128509,-1.5498212120592594
1647770471680567300,2.7455673828125,-1.9248890349268912,-4.196172755944729,-1.4230869295030832
1647770471690618400,2.755618408203125,-2.4294565134108064,-3.792814658138156,-0.60769350643754
1647770471700669200,2.765669189453125,-2.7582255264401434,-3.849121067249775,-0.038221886366605756
1647770471710720300,2.77572021484375,-3.3245383902192116,-4.212208237205446,0.31814006698727604
1647770471720771300,2.785771240234375,-3.8286978724241254,-4.530087899690866,0.6660591861665248
1647770471730822400,2.795822509765625,-3.7582173920094966,-4.805890169425308,0.9278490049004554
1647770471740873200,2.805873291015625,-3.1405420052617785,-4.981252289289236,0.9194482563018799
1647770471750924300,2.81592431640625,-2.33912800770998,-5.088311565038562,0.6457189934492111
1647770471760975400,2.825975341796875,-1.6656418864130973,-5.289960511064529,0.1906862379848957
1647770471771026400,2.8360263671875,-1.29459382058084,-5.399460165703296,-0.23209552221596239
1647770471781077500,2.846077392578125,-1.0979203248798846,-5.161695950201153,-0.46830257140398024
1647770471791128300,2.85612841796875,-0.9907792160660028,-4.969498723131418,-0.9234060540169476
1647770471801179400,2.866179443359375,-1.0153414103925227,-5.089457812464237,-1.5213666864693165
1647770471811230500,2.87623046875,-1.1986287702977656,-5.291166379722952,-2.2838661392152306
1647770471821281500,2.886281494140625,-1.3912369162559508,-5.406776626196503,-3.154282945844531
1647770471831332400,2.896332275390625,-1.7436422409385441,-5.3079649543106555,-3.8103514838725325
1647770471841383400,2.906383544921875,-2.4403198527306316,-4.979474173700809,-4.058555844846367
1647770471851434200,2.916434326171875,-3.5309897680908438,-4.718516714137793,-3.2367706749171017
1647770471861485300,2.9264853515625,-5.053161925724148,-4.762038752739131,-1.3107967673629521
1647770471871536000,2.9365361328125,-7.1710279399216175,-5.082226692166924,0.9946183558374643
1647770471881587200,2.946587158203125,-9.672148590573668,-5.080419935005903,3.2669378496438264
1647770471891638300,2.95663818359375,-11.768081005382538,-4.262560998609662,5.118590967968106
1647770471901689300,2.966689453125,-12.762434572803974,-2.910660944224894,6.22408435845077
1647770471911740400,2.976740478515625,-12.510278843855858,-1.8245023688092827,6.213015267425775
1647770471921791200,2.986791259765625,-11.131993763631582,-1.2051935356408356,5.315872366434335
1647770471931842300,2.99684228515625,-9.196393365076183,-0.6996990054398775,4.301104956537485
1647770471941893400,3.006893310546875,-7.322090023526549,-0.18804098417311907,3.344412718990445
1647770471951943400,3.016943359375,-5.772522493967413,0.23267215306013822,2.2547207087516785
1647770471961994500,3.026994384765625,-4.676389052504301,0.6023422085374593,1.0471773951143026
1647770471972045300,3.03704541015625,-3.9697167009204626,1.0624535824403165,-0.0026098902374505997
1647770471982096400,3.047096435546875,-3.4971102948427197,1.62223821349442,-0.9332429728984832
1647770471992147500,3.0571474609375,-3.143502608633041,2.1895625924035906,-1.8011609484493731
1647770472002198000,3.067197998046875,-2.845430347162485,2.816734706293046,-2.5336978091299533
1647770472012249000,3.0772490234375,-2.630648363319039,3.4388077434778213,-2.966323502475023
1647770472022300000,3.0872998046875,-2.299864503335953,4.030862951278686,-3.1033646595120428
1647770472032351000,3.09735107421875,-1.7515771255910395,4.496444573286175,-3.0853152080804107
1647770472042402000,3.107402099609375,-1.1259908195883035,4.935110715839267,-3.194208713519573
1647770472052453000,3.117453125,-0.5644549609526992,5.324321045827865,-3.4591958669900893
1647770472062504000,3.12750390625,-0.10853548578172921,5.645343390253186,-3.738216221988201
1647770472072555000,3.137554931640625,0.2457330024242401,5.94082738879621,-3.9539182432860134
1647770472082606000,3.147606201171875,0.5780129461839795,6.040192602911591,-4.066230617257952
1647770472092657200,3.1576572265625,0.9840367560684681,5.840094393458962,-4.14156262935698
1647770472102708200,3.167708251953125,1.5725766492247581,5.580679487162828,-4.249394643044472
1647770472112759000,3.177759033203125,1.9684028902217745,5.277041408258676,-4.214747108033299
1647770472122810000,3.18781005859375,2.0160437623187897,4.880708094522356,-4.06455654656589
1647770472132861200,3.197861083984375,1.628842141804099,4.6034489039778705,-3.958711907303333
1647770472142912300,3.207912353515625,0.8645949686080217,4.391204329657555,-3.8943583853363988
1647770472152963000,3.217963134765625,-0.0010977321088314056,4.299614425718784,-3.7636990382909774
1647770472163014100,3.22801416015625,-0.6296046017333865,4.357379801467061,-3.5965029814869163
1647770472173065200,3.238065185546875,-0.8583402921274303,4.384624951267242,-3.44934725767076
1647770472183116300,3.2481162109375,-0.7073172253586352,4.26888610997796,-3.433108655053377
1647770472193167000,3.2581669921875,-0.03257467425987124,3.9420097788274284,-3.4169945555984973
1647770472203218000,3.268218017578125,0.9241882904358207,3.6243940279752014,-3.275769390875101
1647770472213269000,3.27826904296875,1.7682624490626155,3.380252094134688,-3.2903467822819947
1647770472223320000,3.288320068359375,2.2683209256894887,3.3311610232293605,-3.5674516590476033
1647770472233371100,3.29837109375,2.240276149944216,3.43948169721663,-3.7185745329290625
1647770472243422000,3.308421875,1.6839381522126495,3.5585511442333457,-3.762496092242002
1647770472253473000,3.31847314453125,1.365521021849662,4.113727696970105,-4.162873712933063
1647770472263524000,3.328524169921875,1.2645431118406354,4.948754625788331,-4.561722224360704
1647770472273575200,3.3385751953125,0.5042060978256165,4.937690210938453,-3.563089956706762
1647770472283626000,3.3486259765625,0.431718076980859,3.873679169923067,-1.962273301425576
1647770472293677000,3.358677001953125,0.9988619847565888,2.3344658611178395,-1.318504857522249
1647770472303728000,3.36872802734375,1.4038894770801067,1.5429706155121325,-1.5292904652059078
1647770472313779200,3.378779296875,2.090815217925608,1.3261048111319542,-2.4232863003432747
1647770472323830000,3.388830078125,2.832341148486733,2.2238877635926007,-2.66692086918354
1647770472333881000,3.398881103515625,1.256269935144484,3.62210270216763,-1.334219728526473
1647770472343932200,3.40893212890625,0.1824608459532261,3.9765076762348412,-0.9594938509643077
1647770472353983200,3.418983154296875,-1.354165953490138,3.4765579206794497,-0.5854810901075601
1647770472364034000,3.429033935546875,-3.199087717732787,2.5258921038150786,-1.1326426786929369
1647770472374085000,3.439085205078125,-3.4220226128935813,2.407657354056835,-1.6596452763468026
1647770472384136200,3.44913623046875,-4.056224771550298,2.083396173840761,-3.549961010542512
1647770472394187300,3.459187255859375,-3.7570793278902768,1.3540230378881095,-3.5405057844549415
1647770472404238000,3.469238037109375,-3.056243427374959,1.1379773177191614,-3.055970455652475
1647770472414289000,3.479288818359375,-2.239945164424181,0.7545967167973517,-2.5432553265482185
1647770472424340000,3.489340087890625,-1.9079174418598412,-0.020576339560747146,-1.4813602547734974
1647770472434391000,3.49939111328125,-1.392515850150585,-1.0342617994397878,0.15031506462991237
1647770472444442000,3.509442138671875,-0.48822307740449905,-1.7656556275650859,1.8660902244776487
1647770472454493000,3.519492919921875,-0.5436719929039477,-1.7237836942583322,2.355380054330826
1647770472464544000,3.5295439453125,-1.0257248572409152,-2.046433639885485,2.6652193259626626
1647770472474595000,3.539594970703125,-1.9788672933518885,-3.207886233477294,3.7933015648722646
1647770472484646100,3.549646240234375,-3.1885213155329226,-4.096253707338869,4.416576086801291
1647770472494697200,3.559697265625,-3.673418463385105,-3.919814898154139,4.80613946801126
1647770472504748000,3.569748046875,-3.6111733118742704,-2.9917043197080493,4.558364730626344
1647770472514799000,3.579799072265625,-2.8517753322750328,-2.065865193325281,2.788899481645226
1647770472524850200,3.58985009765625,-1.9957658211827276,-3.0217209800481792,0.7130436401814222
1647770472534901200,3.5999013671875,-1.5201701701611279,-4.220479514205455,-2.0165975968092678
1647770472544952000,3.6099521484375,-1.8905653250426053,-4.23016971809268,-2.63959856249392
1647770472555003100,3.620003173828125,-2.7488573941141365,-3.6721547270596027,-2.5288988844156264
1647770472565054200,3.63005419921875,-3.2305770809739824,-2.910649546048045,-1.8194222890660166
1647770472575105300,3.640105224609375,-3.687646895223856,-2.8855098440945146,-1.1185247214913367
1647770472585156000,3.650156005859375,-3.3377146826565265,-3.0728935334026812,-0.5000795194149017
1647770472595207200,3.660207275390625,-2.6581828514546153,-3.1833009505361316,-0.30435879439413543
1647770472605258000,3.670258056640625,-2.4790870980203152,-3.1298224583268164,-0.3962368676245212
1647770472615309000,3.68030908203125,-2.942272764801979,-2.270074052967131,-0.29540888748019933
1647770472625360100,3.690360107421875,-2.888911176970601,-1.2269769129037857,-1.4739973247900604
1647770472635411000,3.700410888671875,-1.6609440839856862,-0.9332838894307612,-2.6735511009782553
1647770472645462000,3.7104619140625,-1.2503612956225871,-0.31450843248665333,-3.6785242620915173
1647770472655513000,3.72051318359375,-1.9638187773019073,0.6410767206013203,-4.318889619553089
1647770472665564200,3.730564208984375,-2.352639815711975,1.3513605406805873,-4.726936167436838
1647770472675615000,3.740614990234375,-2.2265099287897345,2.1466098781228062,-4.352496413339674
1647770472685666000,3.750666015625,-1.8870283830881118,2.4469635285288094,-3.39087870208919
1647770472695716000,3.760716064453125,-1.3354922326803207,2.3792899222284554,-2.3468505647860467
1647770472705767200,3.77076708984375,-0.5664210003286599,1.8876243031546471,-0.629857407450676
1647770472715818200,3.780818359375,-0.46706981473863124,1.406592890819907,0.8747399305254221
1647770472725869000,3.790869140625,-1.4362719897687435,1.4611585937440394,0.9615279871404171
1647770472735920000,3.800920166015625,-2.536125913059711,1.8462933448567986,-0.1324112322140485
1647770472745971200,3.81097119140625,-1.1093693551331758,1.7297098694369195,-1.790945697774738
1647770472756022300,3.821022216796875,0.13155775718986987,2.7717802968010306,-2.7090081988066435
1647770472766073000,3.831072998046875,-2.1800211493372914,5.29281180884242,-1.254306233856082
1647770472776124000,3.8411240234375,-4.173597936043143,5.1545554307967425,-1.4875105940967797
1647770472786175000,3.851175048828125,-4.446362737777829,4.485842222990096,-2.239975997953862
1647770472796226000,3.86122607421875,-3.8267917465418573,4.531598011992871,-1.9360098561391232
1647770472806277000,3.871277099609375,-2.8544670555770395,4.0795466104269025,-1.2697472563549876
1647770472816328000,3.881327880859375,-1.8218921863108872,2.9036028424069285,-2.2612058329872786
1647770472826379000,3.89137890625,-0.8003489986687898,2.166596727357805,-1.1737174702726303
1647770472836430000,3.90143017578125,0.45541620182394976,1.6478224443450569,1.27148650123775
1647770472846481200,3.911481201171875,1.7004373054623603,0.728853788253665,2.37593388979882
1647770472856532200,3.9215322265625,2.483374566081166,-0.2778688468754291,2.677846460084617
1647770472866583000,3.9315830078125,2.7527468027681112,-1.0840879066213964,3.120406395205855
1647770472876634000,3.941634033203125,1.3578314902603625,-2.1943857747763396,4.7471351981177925
1647770472886685200,3.951685302734375,-0.24799802474677562,-2.85690918803215,3.414329428042471
1647770472896736300,3.961736328125,0.7792191168785094,-0.860536048606038,0.9848278333809226
1647770472906787000,3.971787109375,0.908781900858879,0.9970458752453326,2.23278477127552
1647770472916838100,3.981838134765625,-1.481046366518736,1.8889187268793581,2.4657304805800315
1647770472926889200,3.99188916015625,-2.320584050759673,1.228009470821917,1.6177534692957996
1647770472936940300,4.001940185546875,-1.579986633220315,0.5631846487559378,0.17461670832410453
1647770472946991000,4.0119912109375,-1.6756880641311407,0.6644314388342202,0.7297478144839405
1647770472957042000,4.0220419921875,-1.4119658160299062,0.872144068813324,2.781760715806484
1647770472967093000,4.032093017578125,-0.3563625378757715,1.9597611724741755,3.329476431143284
1647770472977144000,4.04214404296875,0.31954876474142074,2.915688709259033,4.011526967167854
1647770472987195100,4.052195068359375,-0.9196510853976011,3.3354151735424993,5.09508442017436
1647770472997246000,4.062245849609375,2.1793045255005357,2.545960786114633,3.6734921131432055
1647770473007296800,4.072296875,1.8530261602431535,0.25476737275123595,4.915677116572857
1647770473017347800,4.082347900390625,-0.3691547994315624,-0.8241990992031991,5.696385010704398
1647770473027399000,4.09239892578125,-2.794980262863636,-0.6500995466209948,5.317909425219893
1647770473037449700,4.10244970703125,-3.5361879212558267,-0.33269436977952715,4.548747007453441
1647770473047500500,4.11250048828125,-2.559239077621698,0.07684358570575714,4.1368735947579145
1647770473057551600,4.122551513671875,-1.207576631385088,0.26214213930293917,4.037903809700906
1647770473067602700,4.132602783203125,0.9619108489781617,0.11091492826417088,3.671666943542659
1647770473077653800,4.14265380859375,2.979424976110458,-1.1594959065660833,3.08817965760082
1647770473087704600,4.15270458984375,2.349228545963764,-2.072344618472457,3.353747241307795
1647770473097755600,4.162755615234375,2.6117624610632655,-2.8713398644447325,2.7566107847198844
1647770473107806700,4.172806640625,3.823825882473588,-3.2139825045257804,-1.7411670829966663
1647770473117857800,4.18285791015625,-1.2945184172570705,-1.621363768747449,-0.840698983105272
1647770473127908600,4.19290869140625,-3.1686013940542934,-1.7299673513293266,2.3212448527559637
1647770473137959700,4.202959716796875,-2.6527181563079356,-0.9475867016799747,4.137358163404464
1647770473148010800,4.2130107421875,-1.1738503028720617,2.12859695930928,4.357953801962733
1647770473158061800,4.223061767578125,-2.7348586793780325,5.833411554694175,4.591619057713449
1647770473168112600,4.233112548828125,-0.7734335192143916,4.053421696828305,1.904573684389889
1647770473178163700,4.243163818359375,1.1441373016536236,-1.259586658477038,1.2783084562122822
1647770473188214800,4.25321484375,2.8413205737560987,0.43257644737586376,3.6958348778545855
1647770473198265900,4.263265869140625,0.6411585536658764,0.693703856678307,2.501260351383686
1647770473208317000,4.27331689453125,-0.7490005042254925,-0.0010888181500136851,2.1445734038591384
1647770473218367700,4.28336767578125,0.06808861684203148,1.1565738816395401,2.5470026963829993
1647770473228418800,4.293418701171875,-0.13334171799719333,2.659953075997531,3.1894483672499656
1647770473238470000,4.303469970703125,-0.1841203035980463,3.8605788653314113,3.7671453793525695
1647770473248520700,4.313520751953125,0.885460061982274,4.567466320970654,2.9635049379229543
1647770473258571500,4.323571533203125,2.3180688530683518,4.813261867237091,2.0883523349434134
1647770473268622600,4.33362255859375,3.472577911132574,4.396939950700104,2.7976752010360357
1647770473278673700,4.343673583984375,4.025796315538883,4.190274637816846,4.197107114185393
1647770473288724700,4.353724853515625,3.8341888710558414,5.142739320796728,5.718226255634427
1647770473298775600,4.363775634765625,3.4656332065612077,6.869332811778784,7.332422616970539
1647770473308826600,4.37382666015625,3.0922961530089377,8.659803439387678,8.358163840824366
1647770473318877700,4.383877685546875,2.9560265648663044,10.093520483976603,8.0875968413949
1647770473328928800,4.3939287109375,2.4811843625605103,10.69991401373148,7.2821011274874206
1647770473338979800,4.403979736328125,1.3367910403192043,11.025517256206273,6.277579217272996
1647770473349030700,4.41403076171875,0.6979641444712877,11.146467694664,5.517904174298048
1647770473359081700,4.424081787109375,0.3062421239227056,10.92791028393507,5.10830630531907
1647770473369132800,4.4341328125,-0.021986206358671188,10.920420220440626,4.639348484876751
1647770473379183900,4.444183837890625,0.27975100736021996,11.302298892366885,4.464010038149357
1647770473389234700,4.454234619140625,0.8783014223992824,12.571212912768125,4.7673652084589
1647770473399285800,4.46428564453125,1.7524258513748645,13.556606928664445,4.506354557403922
1647770473409336800,4.4743369140625,2.8808173023641106,12.99073713247776,1.9418261412024498
1647770473419388000,4.484387939453125,4.236820700414478,10.501379984855651,-1.3507558527857064
1647770473429438700,4.494438720703125,5.408786796975136,7.304030050700902,-4.218168314653635
1647770473439488800,4.50448876953125,6.379616280946135,3.806706113107502,-7.468835997498035
1647770473449540600,4.51454052734375,7.373743638396263,0.07300327689051628,-9.975516035842896
1647770473459591700,4.524591796875,8.186204515141249,-2.2612775830492375,-10.58258644194603
1647770473469642800,4.534642822265625,8.268827268770337,-2.4849273484811185,-10.008317066204548
1647770473479692800,4.54469287109375,7.08109223293066,-1.9370041278734802,-9.796790284764766
1647770473489743600,4.55474365234375,4.889003629180789,-1.7473937024265527,-9.688125327384471
1647770473499794700,4.564794677734375,3.205658036033809,-1.6758119827717541,-8.376181143552065
1647770473509845800,4.574845703125,2.193146003848314,-1.0943494806557894,-6.743626703226566
1647770473519896800,4.584896728515625,0.5253238507866859,-0.2935632596135139,-5.411915158128738
1647770473529947600,4.59494775390625,-1.3475684549212454,-0.2715378902882337,-3.980793975251913
1647770473539998700,4.604998779296875,-3.0421558653116225,-0.014494389298558234,-3.254627234125137
1647770473550049800,4.6150498046875,-4.869130469453334,0.09625438861846923,-3.0485055265992878
1647770473560100900,4.625100830078125,-5.525245184710622,-0.6219909118592739,-4.21250663563013
1647770473570151700,4.635151611328125,-4.937501994889974,-0.5504617991745472,-7.892665805447101
1647770473580202800,4.64520263671875,-3.605427461698651,-0.5941401973813771,-10.47163717302084
1647770473590253800,4.65525390625,-2.2189958998978137,-0.5970166296005248,-10.748387244999408
1647770473600304600,4.6653046875,0.3964601549863815,0.06610708763599395,-10.614145947813988
1647770473610355700,4.675355712890625,4.406327079987526,0.054767362976074214,-8.998922581517697
1647770473620406500,4.685406494140625,5.384637859624624,-0.4588350703567266,-6.477514345118403
1647770473630457600,4.69545751953125,5.324802107343078,-0.13419511995613576,-6.656443509814142
1647770473640508700,4.7055087890625,4.166069878625869,0.12034721186757087,-6.111889473378658
1647770473650559700,4.715559814453125,2.9558897867441174,2.075388223952055,-3.483385720872879
1647770473660610600,4.725610595703125,1.4094526641651988,4.345913820078969,0.4978706111937761
1647770473670661600,4.73566162109375,-1.197695581100881,5.321987049922347,1.752393118149042
1647770473680712700,4.745712646484375,-5.465211864030361,5.505718061941862,1.6868839964061975
1647770473690763800,4.755763671875,-8.601938694918156,5.2376387876749035,1.5153537097901104
1647770473700814800,4.76581494140625,-8.062552416509389,4.383853382372856,0.2662508897960186
1647770473710865700,4.77586572265625,-5.811159975397587,2.9620237594544885,0.26458617145419117
1647770473720916700,4.785916748046875,-3.2887653583094476,2.498794838052988,0.7212655250817537
1647770473730967800,4.7959677734375,-0.7538345002532005,1.6316279731303454,1.4269558798909185
1647770473741019000,4.806018798828125,0.9249804637268185,0.6134902100175619,0.9876315656900405
1647770473751069700,4.816069580078125,1.8437579811602829,-0.137635615798831,-0.11500117466449737
1647770473761120800,4.826120849609375,1.855925388815999,-1.1271920120716095,-1.2037433368325232
1647770473771171800,4.836171875,1.4638906490564345,-1.8410750256866215,-0.7293155605465174
1647770473781223000,4.846222900390625,1.4889897267386316,-0.9092167851448059,-1.3645306956380605
1647770473791273700,4.856273681640625,2.11390032543689,-0.2953209169358015,-1.715223371183872
1647770473801324500,4.866324462890625,2.371139348998666,-0.43341538241803645,-0.14001929606497288
1647770473811375600,4.876375732421875,3.4497301195085046,0.20639877090156078,0.6252461142629384
1647770473821426700,4.8864267578125,4.039861081248522,0.6978408103525638,1.8495979393601416
1647770473831477800,4.896477783203125,4.667554588663577,0.4887812958091497,3.1764532765984534
1647770473841528600,4.906528564453125,4.664264899468422,0.3264952228784561,3.367876596686244
1647770473851579600,4.91657958984375,3.8874084200680254,0.4987824653416872,4.188371726804972
1647770473861630700,4.926630615234375,3.1334827344000336,-0.0960246715158224,4.12817181738615
1647770473871681800,4.936681884765625,2.644015209892392,-0.8017050894528627,3.7065970948874947
1647770473881732600,4.946732666015625,2.386266190981865,-1.1922241639524698,3.08205299141407
1647770473891783700,4.95678369140625,1.9511353829480707,-0.9488128824740648,2.591438634958863
1647770473901834800,4.966834716796875,1.41691057895571,-0.5691986483484506,2.310503970772028
1647770473911885800,4.9768857421875,0.9885977803736925,-0.31706805384159087,1.979506175777316
1647770473921936600,4.9869365234375,0.3255776696421206,-0.06876607771217823,1.509679171285033
1647770473931987700,4.99698779296875,-0.12473331799730658,0.3383762148082256,0.5558750563949346
1647770473942038800,5.007038818359375,-0.5609707720987498,0.6341133113294839,-0.17964812662005422
1647770473952089900,5.01708984375,-0.4368411190830171,0.3361088543981314,-0.45587622055113314
1647770473962140700,5.027140625,0.08891235529258847,0.09872224003672599,-0.814507872402668
1647770473972191700,5.037191650390625,1.0033763934411108,0.13035247305333614,-0.9842477684706449
1647770473982242800,5.047242919921875,2.454927931536734,0.015375848308205604,-1.9209230539053677
1647770473992294000,5.0572939453125,3.5632010158658027,0.03898001125752926,-2.769008201739192
1647770474002344700,5.0673447265625,5.920613452807069,-0.7329390117406844,-3.0290222429722546
1647770474012395500,5.0773955078125,6.456376864543556,-0.44486499719321726,-3.616778292274475
1647770474022446600,5.087446533203125,5.320760138475895,-0.022016016975045204,-2.0813030009537936
1647770474032497400,5.097497314453125,2.945762360483408,1.6534803239762783,-0.1550444312393665
1647770474042548500,5.107548583984375,2.188816596341878,3.2306425474256275,-0.1872486647516489
1647770474052599600,5.117599609375,0.4877005148351192,2.789012294369936,1.2385685664981603
1647770474062650400,5.127650390625,-0.8825601027570664,2.827656205540895,1.2050240242928265
1647770474072701400,5.137701416015625,-1.0288535106554626,2.5253537591546773,1.1868740350961684
1647770474082752500,5.14775244140625,-0.7299395376637577,2.3481068484574554,0.8002794405639171
1647770474092803600,5.157803466796875,-0.33417394081279633,1.7918167815208434,0.7533838338762522
1647770474102854400,5.1678544921875,-0.15522446398139,1.0556722517371178,0.8988555501282215
1647770474112905500,5.177905517578125,0.17867928158789873,0.7241326049506663,0.9869418298602104
1647770474122956500,5.18795654296875,0.6152765089124441,0.6129594641417264,1.2121522687375546
1647770474133007600,5.198007568359375,0.877468478706479,0.5424176089286804,1.5441823293894528
1647770474143058400,5.208058349609375,0.8792432332940399,0.5475859514772892,1.801698124065995
1647770474153109500,5.218109619140625,0.6921896527230739,0.4694534950047731,2.120790377211571
1647770474163160600,5.22816064453125,0.4321254887379706,0.35785482226014137,2.4252654914617535
1647770474173211600,5.238211669921875,0.28724530863836406,0.5427712446719408,2.456955345711112
1647770474183262500,5.248262451171875,0.28055706304609773,1.0636831242352724,2.1135282772541046
1647770474193313500,5.2583134765625,0.3197230983950198,1.7564800952017305,1.7172680287539959
1647770474203364600,5.268364501953125,0.2583344175830483,2.179777988231182,1.5233113907963036
1647770474213415700,5.278415771484375,0.2929636862851679,2.3483885880082846,1.3137339898586273
1647770474223466500,5.288466552734375,0.34063261543288825,2.277039508065581,1.1247919651925564
1647770474233517300,5.298517333984375,0.33183219999223945,1.9552876803219317,0.9922563028812408
1647770474243568400,5.308568359375,0.39953474012613294,1.3819184682905674,0.7711176434874534
1647770474253619500,5.318619384765625,0.6246103005774318,0.5508680418878793,0.4349152655869722
1647770474263670500,5.32867041015625,0.765242760104686,-0.32966450056433677,-0.1292956574767828
1647770474273721300,5.338721435546875,0.7887148211069405,-0.7668675848275422,-0.9522457795321941
1647770474283772400,5.3487724609375,0.7203982407279312,-0.7968465435057878,-1.8903630804687737
1647770474293823500,5.358823486328125,0.534177749980241,-0.7704670706242323,-2.5610908429682255
1647770474303874600,5.36887451171875,0.424779363758862,-0.8205383847385644,-2.9908605623602864
1647770474313925600,5.378925537109375,0.5677120630525052,-1.0268448011815547,-3.219128635242581
1647770474323976400,5.3889765625,0.9365887761950492,-1.406212367069721,-3.31836817715168
1647770474334027500,5.399027587890625,1.445826146186143,-1.8682699066042898,-3.351895183700323
1647770474344078600,5.40907861328125,2.0176742861300707,-2.1943764224261044,-3.4426188261985775
1647770474354129700,5.419129638671875,2.5018302602261304,-2.3172148665875194,-3.5265427255541084
1647770474364179700,5.4291796875,2.818812973871827,-2.2813737378776073,-3.5428199066162107
1647770474374231600,5.4392314453125,2.927859624046087,-2.0970324850052595,-3.4581899048179388
1647770474384281300,5.44928125,2.8934944131076334,-1.7650906871587038,-3.3769752644211053
1647770474394332400,5.45933251953125,2.753804787388444,-1.31734691965878,-3.2216052544891833
1647770474404383500,5.469383544921875,2.4659195734113455,-0.8637176012516021,-2.9649095440238713
1647770474414434600,5.4794345703125,2.121172508396953,-0.2210679322451353,-2.6144120987892148
1647770474424485400,5.4894853515625,1.6113900717437266,0.6374579455822705,-2.15630125105381
1647770474434536400,5.499536376953125,1.0281488695174454,1.51764854272902,-1.6513292834222315
1647770474444587500,5.50958740234375,0.4144190055251121,2.1877309930622575,-1.1625427269160746
1647770474454638600,5.519638671875,-0.1277910981327295,2.706183204513788,-0.9249877702504395
1647770474464689400,5.529689453125,-0.581007159563899,3.183856246331334,-0.6211877787828445
1647770474474740500,5.539740478515625,-0.7734890487939119,3.6753713510185477,-0.2635398772716522
1647770474484791600,5.54979150390625,-0.8224877652406692,4.161678950190544,0.06238952841758728
1647770474494842600,5.559842529296875,-0.9864408946007489,4.572708897799253,0.6745616415739059
1647770474504893400,5.5698935546875,-1.3711258561193942,4.751949028140306,1.1815741751223803
1647770474514944500,5.579944580078125,-1.657301928091049,4.929219904235005,1.4166419911473989
1647770474524995600,5.58999560546875,-1.7785212466180325,5.303129204717278,1.5391840827107428
1647770474535046700,5.600046630859375,-1.9979484259188174,5.575220637235045,1.7803689203113315
1647770474545097500,5.610097412109375,-2.414153730338812,5.510409434628486,2.191358535909653
1647770474555148500,5.6201484375,-2.97222249738574,5.1663499134868385,2.61816999001801
1647770474565199600,5.63019970703125,-3.471445107710361,4.683610235929489,2.910526211929321
1647770474575250700,5.640250732421875,-4.008528369873762,4.251867170637846,3.108177612751722
1647770474585301500,5.650301513671875,-4.566055869650841,3.6737621622562404,3.2223692245990034
1647770474595352300,5.660352294921875,-4.889455464601516,3.026775925350189,2.9471991152882575
1647770474605403400,5.6704033203125,-4.802581483268738,2.549125679886341,2.5539573378264904
1647770474615454500,5.680454345703125,-4.395566031998396,2.243029686436057,2.257967727848887
1647770474625505500,5.690505615234375,-3.7954011675000188,2.1563661329835653,2.066819717571139
1647770474635556400,5.700556396484375,-3.0318741252720356,2.1997797427743673,2.0130565632015465
1647770474645607400,5.710607421875,-2.3311294101715085,2.2597411672621965,2.0707430284947157
1647770474655658500,5.720658447265625,-1.6995640297591685,2.1086843443542715,2.3797277291238306
1647770474665709600,5.73070947265625,-1.0862532679617405,1.719751662263274,2.7124276518613097
1647770474675760400,5.740760498046875,-0.5561076961070299,1.2250374692738055,2.9360780018150803
1647770474685811500,5.7508115234375,-0.10084989971518515,0.6150871238201856,3.1309359725266694
1647770474695862500,5.760862548828125,0.23575990820871665,-0.13357143509984015,3.1105776596307755
1647770474705913600,5.77091357421875,0.4885854809761047,-0.8348428044229745,2.899388147321343
1647770474715964700,5.780964599609375,0.7893454471606761,-1.4459201080799102,2.56451380315423
1647770474726015500,5.791015380859375,1.1182914972573519,-2.054404472634196,2.193028514948487
1647770474736066600,5.801066650390625,1.6978467044472694,-2.6538340085953473,1.9198639002412556
1647770474746117600,5.81111767578125,2.482563834220171,-3.170224611341953,1.7173656439095735
1647770474756168700,5.821168701171875,3.2292420329779383,-3.592725216513872,1.7452338940441607
1647770474766219500,5.831219482421875,3.8853123245716095,-3.9051755474269387,1.8687930536955595
1647770474776270600,5.8412705078125,4.608626014354825,-4.286820995119214,2.1481109303355215
1647770474786321400,5.8513212890625,5.128271234983205,-4.378844614300132,2.2675819438904523
1647770474796372500,5.86137255859375,5.430180298137665,-4.082406091511249,2.3368179772019384
1647770474806423600,5.871423583984375,5.129678179171681,-3.610739596632123,2.6821312977969645
1647770474816474400,5.881474365234375,4.419994370812177,-2.95776844009757,2.8272324271708724
1647770474826525400,5.891525390625,3.4628228253155946,-2.3722294823229313,2.5523797132462263
1647770474836576500,5.901576416015625,2.487274496129155,-2.027617587995529,2.121857714182138
1647770474846627600,5.911627685546875,1.6325369046688079,-1.9432097045153378,1.2596838352411985
1647770474856678400,5.921678466796875,1.0224814183402806,-1.9396628256887196,-0.0620183570176363
1647770474866729500,5.9317294921875,0.6725326930295675,-2.116941885089874,-1.5080723206102846
1647770474876780500,5.941780517578125,0.6158505094081163,-2.5548504872739315,-2.926054620450735
1647770474886831600,5.95183154296875,0.8048602655481547,-2.9915111352235075,-4.314982090720534
1647770474896882400,5.96188232421875,1.0812083325970918,-3.322839769607782,-5.411847353589534
1647770474906933500,5.97193359375,1.2610136225402355,-3.4720307986438272,-6.091197398483753
1647770474916984600,5.981984619140625,1.2172510531812906,-3.393480993542075,-6.403434963428974
1647770474927035600,5.99203564453125,0.919307971048355,-3.1012030975639817,-6.4718246090441935
1647770474937086500,6.00208642578125,0.3075987626960501,-2.655112357968092,-6.48848523646593
1647770474947137500,6.012137451171875,-0.48102118320167064,-2.1912562445789576,-6.6492725952714675
1647770474957188600,6.022188720703125,-1.2231652456611395,-1.6752748071551322,-7.090036586886644
1647770474967239700,6.03223974609375,-1.6804250295251606,-1.1313000319123268,-7.812727760857343
1647770474977290800,6.042290771484375,-1.943921652176976,-0.6576280424296855,-8.647665257826446
1647770474987341300,6.05234130859375,-2.2330524823009967,-0.39288054293394087,-9.430276355230808
1647770474997392400,6.062392333984375,-2.6472780110806227,-0.4281447485387325,-9.896423209905624
1647770475007443700,6.072443603515625,-3.1111440613418817,-0.6614987463831901,-10.131742370343208
1647770475017494800,6.082494873046875,-3.5555811885118485,-0.9391711939036845,-10.23349477185607
1647770475027545600,6.092545654296875,-4.02386213260591,-1.364798406663537,-10.12349593552351
1647770475037596700,6.1025966796875,-4.599653018826246,-1.7610627468168734,-9.802212894335389
1647770475047647700,6.112647705078125,-5.190539767369628,-1.843593730509281,-9.34593861437738
1647770475057698800,6.12269873046875,-5.560139972481132,-1.59724698010087,-8.844053506845235
1647770475067749600,6.13274951171875,-5.7177276584625245,-1.088521797415614,-8.255293248936534
1647770475077800700,6.14280078125,-5.522533587664365,-0.4326064041227102,-7.519133521583676
1647770475087851500,6.1528515625,-5.153952788728475,0.21250117942988872,-6.829978706511855
1647770475097902600,6.162902587890625,-4.937701901376247,0.5812696098923683,-6.102846335223317
1647770475107953700,6.17295361328125,-4.8998997017264365,0.5692956789821386,-5.439523296022415
1647770475118004500,6.18300439453125,-4.992392107462883,0.31854806326627727,-5.073028071188927
1647770475128055600,6.1930556640625,-5.33766568056941,-0.07212590953409671,-4.8290462963461875
1647770475138106600,6.203106689453125,-5.9077697533249856,-0.4508440716028213,-4.645698146164417
1647770475148157700,6.21315771484375,-6.63440411196351,-0.6938859352469444,-4.461172184374928
1647770475158208500,6.22320849609375,-7.188337971162795,-0.7135059969961642,-4.045722082236409
1647770475168259600,6.233259521484375,-7.286825233399868,-0.49576340978145594,-3.3772114112645384
1647770475178310700,6.243310546875,-7.011151850742102,-0.082200144302845,-2.455250295358896
1647770475188361700,6.25336181640625,-6.5787716565907,0.45942251485586166,-1.4273925177425146
1647770475198412500,6.26341259765625,-6.102553489756584,0.9874363353788852,-0.38889410364627836
1647770475208463600,6.273463623046875,-5.727646994930505,1.4271049329727887,0.620977935424447
1647770475218514700,6.2835146484375,-5.4864966441214085,1.895832744051516,1.468309634542465
1647770475228565800,6.293565673828125,-5.5202539522945875,2.3751138055875898,2.021860047382116
1647770475238616800,6.303616943359375,-5.876885954761505,2.581655492091179,2.4626889209270475
1647770475248667600,6.313667724609375,-6.331385626262426,2.572611769413948,2.6213340070068836
1647770475258718700,6.32371875,-6.626078182166815,2.5184289283275603,2.4668647453069688
1647770475268769800,6.333769775390625,-6.814492968088388,2.478322543388605,2.2951386438578365
1647770475278820900,6.34382080078125,-6.782049665123224,2.6487828626856205,2.088741042000055
1647770475288871400,6.353871337890625,-6.6200996922791004,2.894166905541718,1.8016484397053718
1647770475298922500,6.363922607421875,-6.230003811627626,3.0832918855592606,1.828198592978716
1647770475308972500,6.37397265625,-5.764515128600597,3.2038854734033344,2.0212042138218878
1647770475319023600,6.384023681640625,-5.449109455013275,3.3239021381422877,2.418338907068968
1647770475329074700,6.39407470703125,-5.1804047423243516,3.506399516713619,2.9154771123349663
1647770475339125800,6.404125732421875,-5.038750538533925,3.720738432964682,3.4082957008361814
1647770475349176600,6.414176513671875,-4.96747978452444,3.8566187295287846,3.8767718752413987
1647770475359227600,6.4242275390625,-4.922444711011648,3.878798704893887,4.31633175176382
1647770475369278700,6.43427880859375,-4.765737899518013,3.8871944850564,4.676232985159754
1647770475379329800,6.444329833984375,-4.198773878353834,4.004894397285581,4.790231704783439
1647770475389380600,6.454380615234375,-3.6619869687885043,3.888621302989125,4.899339729756116
1647770475399431700,6.464431640625,-3.2694623996853824,3.5989293318510054,5.188811920663714
1647770475409482800,6.474482666015625,-2.6567759072661397,3.585222293537855,5.373640080270171
1647770475419533800,6.484533935546875,-1.8508909017801283,3.7819255998551844,5.254826653841137
1647770475429584600,6.494584716796875,-1.1971966186027974,3.6368466823130845,4.823974984431267
1647770475439635700,6.5046357421875,-0.6531570344954729,3.0933275418832897,4.207755057188868
1647770475449686500,6.5146865234375,-0.4618376862388104,2.6344284663796422,3.3579537530869246
1647770475459737600,6.524737548828125,-0.30149821733124554,2.392554039079696,2.4280466466128825
1647770475469788700,6.53478857421875,-0.1746245993696153,2.4347036202840506,1.7028858676582574
1647770475479839500,6.544839599609375,-0.4169773847710341,2.492462712422013,1.1813275068849325
1647770475489890600,6.554890625,-0.7366020642928779,2.494456516587734,0.8576280522048473
1647770475499941600,6.564941650390625,-0.7772362724982201,2.524327338716388,0.7122422606706619
1647770475509992700,6.57499267578125,-0.3688699911408126,2.5575638378858563,0.5974047521352768
1647770475520043500,6.58504345703125,0.5431038376271724,2.5697888209477067,0.2728548181056976
1647770475530094600,6.595094482421875,1.6350217072218656,2.6901827945664523,-0.0533171641677618
1647770475540145700,6.605145751953125,2.412353402918577,2.7842829277604815,-0.2729658772647381
1647770475550196700,6.61519677734375,2.4933622916102407,2.5680624355465174,-0.513823967128992
1647770475560247600,6.62524755859375,2.4892004957556724,2.179650854720175,-0.6233434955120086
1647770475570298600,6.635298583984375,2.6536826174259183,1.770789483322203,-0.818286221897602
1647770475580349700,6.645349609375,2.486395375207066,1.151793953886628,-1.2466133412659168
1647770475590400800,6.65540087890625,2.0101310311436653,0.47502720348387956,-2.07504218699336
1647770475600451600,6.66545166015625,1.5132257578507065,0.043933395881205796,-3.0149247440367937
1647770475610502700,6.675502685546875,0.8460641634002327,-0.19699542113170027,-3.630601650443673
1647770475620553700,6.6855537109375,-0.03069879738539457,-0.2534844933338463,-3.733440093627572
1647770475630604800,6.695604736328125,-0.9367623791962861,-0.3515883092112839,-3.477819903439283
1647770475640656000,6.70565576171875,-1.840143590055406,-0.2472324472017586,-3.193758047142625
1647770475650706400,6.71570654296875,-2.3860873272836205,0.12657003190517424,-3.1000194407373667
1647770475660757500,6.725757568359375,-2.3824621225237843,0.4041071626082062,-3.0336358742475507
1647770475670808600,6.73580859375,-2.0586054314553737,0.5827276997461914,-2.574524909558892
1647770475680859600,6.745859619140625,-2.06773157171905,0.37840661190152164,-1.7202432451725005
1647770475690910500,6.755910400390625,-1.7362527152091263,0.9879725611474365,-1.8802520208209752
1647770475700961500,6.76596142578125,-1.1750222692608832,1.4791989850863814,-1.9962287625193595
1647770475711012600,6.7760126953125,-0.8915162932813167,1.3255781569093465,-1.6906091544091701
1647770475721063700,6.786063720703125,-0.8249579547464847,1.1861974510088562,-1.4999556496500968
1647770475731114800,6.79611474609375,-0.9524784192442893,1.4179030971243978,-1.3632009083390235
1647770475741165600,6.80616552734375,-0.8945862022459506,1.8433683973208068,-0.9180763834267854
1647770475751216600,6.816216552734375,-0.7110147647023201,2.1881550636932254,-0.33910628264844417
1647770475761267700,6.826267822265625,-0.23165128557980058,2.3461752958729862,0.17465747872591017
1647770475771318800,6.83631884765625,0.4824766427069902,2.3741940603941676,0.6453203495204448
1647770475781369600,6.84636962890625,1.17860948009789,2.344732403588295,1.0764508358716964
1647770475791420700,6.856420654296875,1.6359288851946592,2.2215812402158974,1.4317413606017828
1647770475801471700,6.8664716796875,1.8175953658998012,2.2348472567632793,1.5898399187147616
1647770475811522800,6.876522705078125,1.523853242588043,2.476825290568173,1.673518318876624
1647770475821573600,6.88657373046875,0.837986363145709,2.7844699747651815,1.8068501000016928
1647770475831624700,6.896624755859375,0.4372328948795795,2.891583611050248,2.007811063763499
1647770475841675500,6.906675537109375,0.49606034690141676,3.017960166209936,1.9989216548651456
1647770475851726600,6.9167265625,0.6760568485677242,3.0388474714159965,1.874002897298336
1647770475861777700,6.926777587890625,0.977091466975212,2.845422748377919,1.987393129634857
1647770475871828500,6.936828369140625,1.3530647142499685,2.735584947825968,2.188041958707571
1647770475881879600,6.946879638671875,1.5155904411554335,2.9906197393417355,2.6402713471889494
1647770475891930600,6.9569306640625,1.287402447772026,3.237010913413763,3.0168793852359053
1647770475901981700,6.966981689453125,0.9468214163959026,3.0636855600744486,2.716983415469527
1647770475912032500,6.977032470703125,0.5095797536879778,2.345394520758837,1.7348960399031639
1647770475922083600,6.98708349609375,-0.05813537810444831,1.2603536973267793,0.23484628222882747
1647770475932134700,6.997134765625,-0.7204892800122499,0.2024219762250781,-1.2534586771160363
1647770475942185700,7.007185791015625,-1.309392745783925,-0.6200234111785888,-2.1192150907188654
1647770475952236500,7.017236572265625,-1.8810726895540952,-1.0150228459626436,-2.0760265218555927
1647770475962287600,7.02728759765625,-2.2648563183188437,-0.9961042104810476,-1.2976298272758722
1647770475972338700,7.037338623046875,-1.9390321265697479,-0.8618573603376746,-0.18756781370341777
1647770475982389800,7.0473896484375,-1.0768939034640788,-0.7835815498717129,0.7825731034815311
1647770475992440600,7.057440673828125,-0.21738485981822012,-0.883595144893229,1.3172230010181665
1647770476002491600,7.06749169921875,0.18366846817731855,-1.2499850096561014,1.2615993134737014
1647770476012543500,7.07754345703125,0.24518705897927282,-1.7997665714815259,0.5941156474620104
1647770476022594600,7.087594482421875,0.18035715167224406,-2.347242048321664,-0.18067103992700576
1647770476032645400,7.097645263671875,-0.017119477105140685,-2.7690783443659543,-0.833840349382162
1647770476042696400,7.107696533203125,-0.37890053289830683,-3.1620927428126335,-1.4314473460912704
1647770476052747500,7.11774755859375,-0.4020078522413969,-3.2828111260801554,-1.9081600184440612
1647770476062798600,7.127798583984375,-0.11288871255517005,-3.1164217094838618,-2.0300281562685965
1647770476072849400,7.137849365234375,-0.003190320473909378,-2.833714774927497,-1.7316624648094177
1647770476082900500,7.147900390625,-0.04264087185263633,-2.722172216284275,-1.3390215758502482
1647770476092951600,7.15795166015625,0.228591898009181,-2.564775961221754,-1.179308568277955
1647770476103002600,7.168002685546875,0.6803864022046328,-2.307086563543975,-1.176516891732812
1647770476113053400,7.178053466796875,1.0962725576728582,-2.420018822979927,-1.2107014854073523
1647770476123104500,7.1881044921875,1.5230688142120836,-2.577278299920261,-1.5678502052247523
1647770476133155600,7.198155517578125,1.8854677096426486,-2.6548522457271813,-1.991734958231449
1647770476143206400,7.208206298828125,2.236319959664345,-2.7953479271322488,-2.167614087706804
1647770476153256400,7.21825634765625,2.4561399376749993,-2.7046733844727275,-2.341425178736448
1647770476163307500,7.2283076171875,2.49006266554296,-2.7388699608460065,-2.526256260952353
1647770476173358300,7.2383583984375,2.919239679738879,-3.1561805961593983,-2.292476731172204
1647770476183409400,7.248409423828125,3.7282507082909344,-3.1224960609614847,-2.2945246036127207
1647770476193460500,7.25846044921875,4.330143419495225,-2.544752287107706,-2.4637688251182435
1647770476203511600,7.268511474609375,4.481815743952989,-1.9956541775017975,-2.2509511270850897
1647770476213562400,7.278562255859375,4.035982193988561,-1.2291016499727965,-2.0022963919952512
1647770476223613400,7.288613525390625,3.014002368494868,-0.10543109002560376,-2.007490453507006
1647770476233664500,7.29866455078125,1.6943115160584448,0.9733283150494099,-2.4790736540168523
1647770476243715600,7.308715576171875,-0.18111761465072632,1.8917866835311055,-3.5465000564336773
1647770476253766700,7.3187666015625,-1.8508090687155723,2.446803954052925,-4.970848968696594
1647770476263817500,7.3288173828125,-2.6236931373536585,3.3444641569167373,-6.231871359065175
1647770476273868500,7.33886865234375,-2.629576350173354,4.203099924859404,-6.7884630392968655
1647770476283919600,7.348919677734375,-1.9031535884588955,4.488215674123167,-6.38659956396222
1647770476293970700,7.358970703125,-0.6050058747887611,4.841467678762972,-5.099813202261925
1647770476304021200,7.369021240234375,0.20371055473089217,5.343227990871667,-3.8546325241476294
1647770476314072300,7.379072265625,0.21321955683231353,5.661809956407547,-2.8393068958461285
1647770476324123400,7.389123291015625,0.08777122243344783,5.864516887053847,-2.466317340557277
1647770476334174500,7.399174560546875,-0.3257061183273792,5.742500865191221,-1.9399115397527813
1647770476344225300,7.409225341796875,-0.6707137339740992,5.507312637656927,-1.760614418527484
1647770476354276400,7.4192763671875,-0.8128408159732818,5.251920995527506,-1.9701316137105225
1647770476364327400,7.429327392578125,-1.0765344225019216,4.742283374172449,-1.938570938798785
1647770476374378500,7.43937841796875,-1.1380255407750606,4.2151250014349815,-2.073003082381189
1647770476384429600,7.4494296875,-0.5510936673372984,3.6884663949131964,-2.540244162033498
1647770476394480400,7.45948046875,-0.06349836644232272,3.21329335321784,-2.726791692778468
1647770476404531500,7.469531494140625,-0.19778993251025676,2.8408474032863973,-2.1014333503127096
1647770476414582500,7.47958251953125,-0.7456903567641973,2.7346719246342777,-0.9954185663044453
1647770476424633600,7.489633544921875,-1.4195476494610308,2.917482314677536,0.11467325788438319
1647770476434684400,7.499684326171875,-1.740264873459935,3.027340865756571,1.0325669782206415
1647770476444735500,7.509735595703125,-1.651166201815009,2.8358111626848577,1.8478300529047846
1647770476454786600,7.51978662109375,-0.8321908286094665,2.7672867847740648,2.0056912951305508
1647770476464837600,7.529837646484375,0.39234161375164983,2.751671282491088,1.6515750748768447
1647770476474888400,7.539888427734375,1.4228887765824794,2.793154216480255,1.0949866095155476
1647770476484939500,7.549939453125,2.012033065372705,2.7785557822853324,0.6453586357042193
1647770476494990600,7.559990478515625,2.4497388384610415,2.415425357709825,0.3867822260588407
1647770476505041400,7.57004150390625,2.4915835914999245,2.0819833844333884,0.17641133665591477
1647770476515092500,7.580092529296875,1.9657944612890481,1.6615645539715884,-0.07121990060508251
1647770476525143300,7.590143310546875,1.498744520294666,1.263688686968386,-0.1921855366319418
1647770476535194400,7.6001943359375,1.3844319124162197,1.4538684367358683,0.16690467264205217
1647770476545245400,7.610245361328125,1.6329086605906487,1.657508848839998,0.7368000710830092
1647770476555296500,7.620296630859375,2.122047099274397,1.4622686008125543,1.293474753423035
1647770476565347300,7.630347412109375,2.2161761663019655,1.484472979966551,1.620249962286651
1647770476575398400,7.6403984375,1.9474346287339925,1.5715281630851328,2.0171806573942304
1647770476585449500,7.650449462890625,1.9970628752559423,1.025926517292857,2.545660341863334
1647770476595500500,7.66050048828125,1.7976263445824383,0.2421834932491183,2.9115216527074574
1647770476605551400,7.67055126953125,1.0116419713526963,-0.4255767977468669,2.647433786164224
1647770476615602400,7.6806025390625,0.7320026076734065,-0.7630237688809632,1.8962310957193373
1647770476625653500,7.690653564453125,0.9540770866125822,-0.9791606744647026,0.8977890899404883
1647770476635704600,7.70070458984375,1.0419102683663368,-0.7787582213684916,-0.04367737529352307
1647770476645755600,7.710755615234375,0.7138800910055637,-0.26847601849958297,-0.7007122741356492
1647770476655806500,7.720806396484375,0.8029378461182117,0.28176088587790726,-0.4802326631724834
1647770476665857500,7.730857421875,1.5815543209284544,0.8197964803300798,0.5380431932367384
1647770476675908600,7.74090869140625,2.528214993804693,0.4334029613278806,1.5890698111250996
1647770476685959700,7.750959716796875,2.769828870472312,-0.6968937387607991,2.720826646894216
1647770476696010500,7.761010498046875,2.315395834466815,-1.959236564078182,3.1520009723871945
1647770476706061300,7.771061279296875,0.7625982369452714,-3.105398795688152,3.1317996036186813
1647770476716112400,7.7811123046875,-1.4733511358410118,-3.8173791905522343,2.823018608868122
1647770476726163500,7.79116357421875,-3.200305861350894,-3.7128462184101343,2.945778727096319
1647770476736214300,7.80121435546875,-4.336413585805893,-3.590166764202714,2.7694623752474783
1647770476746265300,7.811265380859375,-4.600080888849496,-3.0002395083412527,2.65726047591269
1647770476756316400,7.82131640625,-5.0017029566437,-2.4355475237622857,2.6270634905695913
1647770476766367500,7.831367431640625,-4.177935088464618,-2.2017313152335585,2.217746338228136
1647770476776418600,7.84141845703125,-2.4580454790353774,-2.0013396757923068,2.6370915481090544
1647770476786469400,7.851469482421875,-0.650918900179863,-2.03556124047637,2.8791011460959908
1647770476796520400,7.8615205078125,0.6262760418325662,-2.252650624479353,2.9210762475162744
1647770476806571500,7.871571533203125,1.3037281441509723,-2.327398699210584,2.770226345357299
1647770476816622600,7.88162255859375,1.2490706712901591,-2.5051164422899483,2.9564491741925476
1647770476826673400,7.89167333984375,-0.18358312798142432,-2.5318080498605964,3.5430317958012223
1647770476836724500,7.901724365234375,-1.3893454034209252,-2.232496017462015,3.8398672089532013
1647770476846775600,7.911775634765625,-1.7250304794490336,-1.626680579856038,4.086580162325501
1647770476856826600,7.92182666015625,-2.2807646660685537,-1.2125804310217498,4.000386856733262
1647770476866877400,7.93187744140625,-2.8840783499866722,-1.1292162113755941,3.6986867601543665
1647770476876928500,7.941928466796875,-3.1863170834869146,-1.3764835837602614,3.2467879188016053
1647770476886979600,7.9519794921875,-4.909567109259963,-1.3833409023091197,1.8599436845466493
1647770476897029400,7.962029296875,-4.3547401006132365,-2.0404159870311616,1.3760177198141812
1647770476907080400,7.97208056640625,-3.1880291481018066,-2.0637787424400447,0.5555540077470242
1647770476917131500,7.982131591796875,-1.8927286405563353,-1.6561574342310428,0.5117686420343815
1647770476927182300,7.992182373046875,-0.2804582788467407,-0.9013993893921375,0.7448620892465114
1647770476937233400,8.0022333984375,0.29057343014776704,-0.31901100460290904,0.7493130773060024
1647770476947284500,8.012284423828126,-0.010348960056900978,-0.2750245633602142,1.0027344422757625
1647770476957335600,8.02233544921875,-0.4947247143834829,-0.2816805141180754,1.2142746677190064
1647770476967386400,8.032386474609375,-0.8113461935013532,0.10640636479854583,0.8785273401096463
1647770476977437400,8.0424375,-1.426921977621317,0.6336831032186746,0.17487345956414937
1647770476987488500,8.052488525390626,-1.1125222662061451,0.5137056014463305,0.42297099916264413
1647770476997539600,8.06253955078125,0.46481882094144816,0.19181027357876299,0.8931867107115685
1647770477007589600,8.072589599609374,1.0250772069871426,0.36004327221512794,0.7819697307609021
1647770477017640700,8.082640625,1.4498504332661628,0.9365051895648241,0.10591244380176067
1647770477027691500,8.09269140625,2.5294915896117685,1.35633482196182,-0.06100961836650967
1647770477037742600,8.10274267578125,3.1009464924544092,1.1212079692259431,0.5478089465782046
1647770477047793700,8.112793701171874,3.144368870073557,0.5329115294367075,1.625378849607706
1647770477057844500,8.122844482421876,2.5372762521386143,-0.011285364124178885,0.7243420099176466
1647770477067895300,8.132895263671875,0.9326385772645472,0.2741597632244229,-0.6401964306354523
1647770477077946400,8.1429462890625,-0.7135118422150611,0.22109014407694338,-0.7909754595153033
1647770477087997400,8.15299755859375,-1.1916945871204137,1.012750517116487,-1.858550330492109
1647770477098048500,8.163048583984375,-0.33590427173674103,2.1752689863741397,-2.8991829801380633
1647770477108099600,8.173099609375,1.83947402023077,3.1454063964277506,-2.5195664079248905
1647770477118150400,8.183150390625,2.926916205716133,2.637922153714299,-3.141991619548201
1647770477128201500,8.193201416015626,2.254846380957961,2.1075974259003996,-2.566746092250943
1647770477138252500,8.20325244140625,2.1117595140159127,1.961732618677616,-1.0673065754294395
1647770477148303600,8.2133037109375,1.280826576513052,1.4643755099639295,-0.18234511061906813
1647770477158354400,8.2233544921875,0.17286416556835174,0.7360007373988628,-0.06297068930640816
1647770477168405500,8.233405517578126,-0.9863993935465812,0.18159399999082088,-0.8762107337303459
1647770477178456600,8.24345654296875,-1.031812652722001,-0.6857908915966748,-1.731575955569744
1647770477188507600,8.253507568359375,0.1533376273214817,-0.9298395941957831,-1.4702287660367785
1647770477198558500,8.263558349609376,1.460588684901595,-0.7865154113665223,-1.3223200318962334
1647770477208609500,8.273609619140625,1.8344278427571057,-1.4275509231746195,-0.7486613353990018
1647770477218660600,8.28366064453125,2.202697091525793,-1.578982716874778,-0.4895040936583653
1647770477228711700,8.293711669921874,2.83493993280828,-1.4932196193933487,-0.7960584618680179
1647770477238762500,8.303762451171876,3.305602219080925,-1.3145990822553635,-1.1349519785486162
1647770477248813600,8.3138134765625,3.3161849878937004,-1.2062754856586455,-1.2296353184580802
1647770477258864400,8.323864501953125,2.7556401861220596,-1.2042039400815963,-1.5566034195452927
1647770477268915500,8.33391552734375,1.7521289142549037,-0.9570680851221084,-2.787342899852991
1647770477278966500,8.343966552734376,0.7433218740671873,-0.38218291556984185,-3.240572989809513
1647770477289017300,8.354017333984375,-0.362130015361309,0.3647513037756085,-3.5744679675504565
1647770477299068400,8.364068359375,-2.0750684904783965,1.3193047757282852,-3.9269031028494235
1647770477309119500,8.374119384765624,-4.95670061635673,2.961566663336754,-3.434045935903489
1647770477319170600,8.384170654296875,-7.9189640297859905,4.561360113050044,-3.074837945468724
1647770477329221400,8.394221435546875,-6.935623439288139,2.826258029180765,-1.2599147213876247
1647770477339272400,8.4042724609375,-5.123262466910481,-0.06510930877029895,-1.5459133909657596
1647770477349323500,8.414323486328126,-3.922864933374524,-0.920727482457459,-1.913027186089009
1647770477359374600,8.42437451171875,-2.708949162095785,-0.5104287717327475,-0.6141029350884258
1647770477369425400,8.43442529296875,-1.7010697581470011,-0.2521323480725288,-0.16414660610556603
1647770477379476500,8.4444765625,-1.2199737561434507,-0.20021803644001482,-0.42071372175514693
1647770477389527600,8.454527587890626,-1.5741092656195164,-0.24074264679104088,0.08223068557158111
1647770477399578600,8.46457861328125,-1.459454712435603,-0.4545946563079953,0.07418722597807645
1647770477409629700,8.474629638671875,-1.25602531273365,-0.25718817015737294,-0.2959602377526462
1647770477419680500,8.484680419921874,-1.4220149163573979,-0.1258838032066822,-0.10228840808570384
1647770477429731600,8.494731689453126,-1.1878659687429667,-0.10819558630287647,-0.27612960199266673
1647770477439782700,8.50478271484375,-0.8623182558476924,-0.09069646223038434,-0.7804758389413357
1647770477449833700,8.514833740234375,-0.41332068889439105,-0.2211024190366268,-0.9996873296648263
1647770477459884300,8.52488427734375,0.3056809829086065,0.1903893008649349,0.09510857958421111
1647770477469935400,8.534935302734375,0.6329875221699476,0.18974281965494155,0.4342538790687918
1647770477479986400,8.544986328125,0.7835130146801471,0.1915577601224184,0.4886981475703418
1647770477490037500,8.55503759765625,1.2380354825347661,0.3862678467959165,0.7128865499235689
1647770477500088600,8.565088623046876,2.107497764918208,0.608450754545629,0.7687336709603667
1647770477510139400,8.575139404296875,2.715609204506874,0.8610954360544681,0.6432640015125274
1647770477520190500,8.5851904296875,2.7269021674156186,0.7409808638989925,1.318057698276639
1647770477530241500,8.595241455078124,2.512469143140316,0.8438540861353278,0.8596317932426929
1647770477540292600,8.605292724609376,1.775517388626933,0.9084303109422326,-0.09015504883006215
1647770477550343400,8.615343505859375,1.1370505582630634,0.9065145404487848,-0.23142770595699547
1647770477560394500,8.62539453125,1.5563479834794998,0.7529036491438746,0.05345006983242929
1647770477570445600,8.635445556640626,2.419401567864418,0.7105921553760767,0.4095759494081139
1647770477580496600,8.64549658203125,3.410375429719686,0.7639739092126488,1.1098954248338937
1647770477590547500,8.65554736328125,4.0896407189399,0.4532371042191982,1.380257257080078
1647770477600597500,8.665597412109374,4.199458938008546,0.1911176151394844,1.7254639024302363
1647770477610649600,8.675649658203126,3.970857103127241,0.21477117018848657,2.433674423366785
1647770477620699400,8.685699462890625,3.6734178788632152,0.26011399447619915,2.7235329832434654
1647770477630750500,8.69575048828125,2.8834429746925827,0.39499066695570945,2.6089856898263095
1647770477640801500,8.705801513671876,1.8351538189440963,0.390282343134284,2.3059366628564892
1647770477650852400,8.715852294921875,0.9003308833777904,0.28899171391427514,1.7401612669549882
1647770477660903400,8.7259033203125,0.18491876049935815,0.32125761448591944,1.5054226828843353
1647770477670954500,8.73595458984375,-0.0801782830864191,0.36379064204990863,1.5115153006710111
1647770477681005600,8.746005615234376,0.04034136273860931,0.2970490559026599,1.2588285335861145
1647770477691056400,8.756056396484375,0.37262510589063164,0.1310340255767107,1.4474347504265606
1647770477701107500,8.766107421875,0.5532727649420499,0.1592918595507741,1.9238355803512035
1647770477711158500,8.776158447265624,0.4337795395553112,-0.0617719810411334,2.012771462649852
1647770477721209600,8.786209716796876,0.40348610810041424,-0.6660203154608607,2.0623700446859
1647770477731260400,8.796260498046875,0.2955073794186115,-0.9466904834926128,2.2434297916695476
1647770477741311500,8.8063115234375,-0.3051584203392267,-0.4230734366238117,2.5448405499130486
1647770477751362600,8.816362548828126,-1.2687176210463047,0.22634119647294282,2.778293916478753
1647770477761413600,8.82641357421875,-2.373181083959341,0.574498216061294,2.7559961599528786
1647770477771464700,8.836464599609375,-3.2747967464506624,0.8399082711189985,2.7359336151331664
1647770477781515500,8.846515625,-3.601917992272973,1.0120032058805226,2.582973588952422
1647770477791566600,8.856566650390626,-3.43410994105041,0.9170797736048698,2.126797070280462
1647770477801617700,8.86661767578125,-3.1441169411391017,0.5577630620986223,1.8163487268395722
1647770477811668500,8.87666845703125,-2.678887201309204,0.2829156088709831,1.621935723416507
1647770477821719300,8.88671923828125,-1.6441899330615997,0.1678770248055458,1.608048944622278
1647770477831770400,8.896770263671876,-0.7072428449481726,0.3388067151799798,1.8236223711043595
1647770477841821400,8.906821533203125,-0.7400596574008464,0.6710504185825585,2.0401320555232463
1647770477851872500,8.91687255859375,-1.66274616497159,0.45134179199188945,1.432115016219765
1647770477861923600,8.926923583984374,-2.918676200637221,0.6102104576945304,1.4020869577027857
1647770477871974400,8.936974365234375,-4.11317766187191,0.9887883345097302,1.5241791135415435
1647770477882025500,8.947025390625,-4.369219292342662,0.9203446206197142,0.5818750284396111
1647770477892076500,8.95707666015625,-3.88896617090404,0.599025046813488,-0.317634747813642
1647770477902127600,8.967127685546876,-2.8575018932282923,0.3754594525337219,-0.5328029544956981
1647770477912178400,8.977178466796875,-1.6373586257368324,0.4098655800044536,-0.40966333543062206
1647770477922229500,8.9872294921875,-0.877302474489808,0.5358680411547422,-0.40261458596289157
1647770477932280600,8.997280517578124,-0.5258183563053608,0.5121668475717306,-0.3233149854071438
1647770477942331600,9.00733154296875,-0.26729075423777104,0.43732700290381904,-0.12352657255604862
1647770477952382500,9.017382568359375,0.11405950990021228,0.28601386714726684,-0.7069471499372273
1647770477962433500,9.02743359375,0.5318775102138519,0.18080051152557133,-0.7481226984776556
1647770477972484600,9.037484619140624,0.7115156999617814,0.20375556291639804,-0.8324879118598997
1647770477982535700,9.04753564453125,0.490990788552165,0.4123556432545185,-1.1436992024973034
1647770477992586500,9.05758642578125,0.046671150282025335,0.7399567815482616,-1.3974943692155182
1647770478002637600,9.067637451171874,-0.4077186311036348,0.7377335525408387,-1.5667399058952927
1647770478012689000,9.07768896484375,-0.34800387485325335,0.730651485325396,-1.2775848181128502
1647770478022740000,9.087739990234375,0.29297932224571704,0.9352589888960122,-1.1827275829412043
1647770478032790800,9.097790771484375,1.3237410046100615,1.0504092166423797,-1.2500349862776696
1647770478042841900,9.107841796875,2.627070504832268,1.1373749679118395,-1.8818904356777666
1647770478052893000,9.117892822265626,3.8297622867852446,1.229180560427904,-1.4391281098522246
1647770478062944000,9.127944091796875,5.4317152526199814,0.6592875000745058,-1.306859720174968
1647770478072995000,9.1379951171875,6.337482774093747,0.4864534373834729,-0.7389763191435486
1647770478083046000,9.1480458984375,6.6397039719372986,-0.08417758185565472,-0.4262099810838699
1647770478093097000,9.158096923828126,6.087824122658372,-0.3662196227625012,-0.9600691666342317
1647770478103148000,9.16814794921875,4.842228434002399,0.05818535472601652,-2.0258068853117526
1647770478113199000,9.17819921875,3.7428999958902596,0.37994098186194897,-2.30634100587368
1647770478123250000,9.18825,2.8456624023526906,0.4503700243502855,-2.3593482273094355
1647770478133300700,9.19830078125,2.2639953175753353,0.47676118766963477,-2.5184733519911764
1647770478143351800,9.208351806640625,2.2437936565458774,0.6223030465483665,-2.586836401860416
1647770478153403000,9.21840283203125,2.61123229970932,0.7672463550120592,-2.630037245683372
1647770478163453700,9.22845361328125,2.988496755838394,0.5741472106665373,-2.4152986625902355
1647770478173504800,9.2385048828125,2.7631010235220193,0.3782277482032776,-2.0677743879474697
1647770478183555800,9.248555908203125,1.5270850641161202,0.49698652183562514,-1.6676498652346432
1647770478193607000,9.25860693359375,-0.8073807970017194,0.8705673210158944,-1.5520016248382627
1647770478203658000,9.268657958984376,-4.163443037253618,1.1774497886687516,-1.8772909790582955
1647770478213708800,9.278708740234375,-7.733055673727392,1.172066926586628,-2.4541028788894415
1647770478223760000,9.288759765625,-10.147052167677879,0.9869470905572175,-2.684284384177625
1647770478233811000,9.29881103515625,-10.556337901967764,0.7126882508724928,-2.3290023350149394
1647770478243862000,9.308862060546875,-9.159870099321008,0.457838460534811,-1.9132292845323682
1647770478253912800,9.318912841796875,-6.965243501526117,0.31560937946587797,-1.6766406886808574
1647770478263964000,9.3289638671875,-4.8011043964535,0.2864206943824887,-1.6324996413983404
1647770478274015000,9.339014892578126,-3.007422405582666,0.20107436100840567,-1.7382203620202838
1647770478284066000,9.349066162109375,-1.6388696148216724,-0.0978501333773136,-1.6693321192331612
1647770478294116900,9.359116943359375,-0.7324626264005899,-0.4220791648894548,-1.2144487091116607
1647770478304168000,9.36916796875,-0.56845396746099,-0.4045578289851546,-0.4563065747924149
1647770478314219000,9.379218994140626,-1.302740302157402,-0.09766717802584171,0.02145648339614272
1647770478324269800,9.389269775390625,-2.1796371184557675,0.145599142023921,-0.03897401990815997
1647770478334321000,9.39932080078125,-2.6206004320353267,0.2944002949595451,-0.10326178316250442
1647770478344371000,9.409370849609376,-2.5731460224211213,0.37603491433411834,-0.16847440617680548
1647770478354422800,9.4194228515625,-1.9453291808873414,0.43292350724786516,-0.19757599749863147
1647770478364472800,9.429472900390625,-0.8253338023215532,0.5173562329083681,-0.3639988779731095
1647770478374524000,9.43952392578125,0.25138182196617126,0.7241182841643691,0.12066095399186015
1647770478384575000,9.449574951171876,1.2602554976493119,0.741145991332829,-0.2984112111013382
1647770478394625800,9.459625732421875,1.865572922605276,1.0862062139496207,-0.3640145139336586
1647770478404676900,9.4696767578125,2.456643795543909,1.1840519634127615,-0.45127033419087526
1647770478414728000,9.47972802734375,2.9133845239698886,1.156087559427321,-0.7912776573322713
1647770478424779000,9.489779052734375,2.9822610763192174,1.0491644772782922,-0.7607648840382695
1647770478434829800,9.499829833984375,2.9810990468025205,1.0447814398884772,-0.5566207601957023
1647770478444881000,9.509880859375,2.9048072497606277,0.9565943301305174,-0.5436506578549742
1647770478454932000,9.519931884765626,2.9232097524136305,0.8360273380324243,-0.4119324494063854
1647770478464983000,9.529983154296875,3.0697037974506616,0.750429952506721,-0.08180588428825139
1647770478475034000,9.5400341796875,3.102541652691364,0.7374708099514246,0.294556216173619
1647770478485084700,9.550084716796874,3.048132017111778,0.6468339689537882,0.24406653051674365
1647770478495135700,9.5601357421875,2.956142300200462,0.5683256649062037,0.4620646999277174
1647770478505186800,9.570186767578125,3.0426556315273046,0.28363544757813214,0.8301194291628897
1647770478515238000,9.58023779296875,2.89474996612668,0.24624562812149522,0.7007939610697329
1647770478525288700,9.590288818359374,2.5530320396751165,0.4622974857702851,0.648348757430911
1647770478535339800,9.60033984375,2.3726631975650787,0.5004050981074571,0.47087198350057
1647770478545390800,9.610390869140625,2.4080104052782056,0.39810032340884205,0.39087329476475713
1647770478555442000,9.62044189453125,2.410570026633143,0.29869653084874154,0.5087039937667548
1647770478565493000,9.630492919921876,2.2376538386166094,0.3759016433432698,0.7634438939891756
1647770478575543800,9.640543701171875,1.950589293372631,0.486578232806921,0.9053981036394834
1647770478585595000,9.650594970703125,1.543165845823288,0.48344519547820086,1.091490876354277
1647770478595646000,9.66064599609375,0.9146925862073898,0.4257791884511709,1.3056333932504056
1647770478605697000,9.670697021484376,0.03243511965870857,0.38685529129505153,1.3976532130390404
1647770478615747800,9.680747802734375,-0.9793032978057861,0.4394280668362975,1.5021229106865823
1647770478625799000,9.690798828125,-1.752344602832198,0.4226058191120624,1.4279581888012587
1647770478635850000,9.70085009765625,-1.9977643015235662,0.07323679338544607,1.3039289274200796
1647770478645901000,9.710901123046876,-1.5644295831263064,-0.3773229083180427,1.5661252811282873
1647770478655952000,9.720951904296875,-0.9016571635454893,-0.42259237510859965,1.8226446121133864
1647770478666003000,9.7310029296875,-0.3726929104298353,-0.2337684238642454,2.0966616058662533
1647770478676054000,9.741053955078126,-0.33505437690913675,-0.051881286145746705,2.372003418482095
1647770478686104800,9.751104736328125,-0.6911772608101368,0.0555956304937601,2.378921088916063
1647770478696156000,9.761156005859375,-1.2245821267217396,0.2133794235691428,2.1855254458419977
1647770478706206700,9.771206787109374,-1.9437351896941661,0.6323918943643569,2.162361720136553
1647770478716257800,9.7812578125,-2.8428263021439313,1.052620462951064,2.428433600103855
1647770478726308900,9.791308837890625,-3.822958451989293,1.0895324357628822,2.4628888274133205
1647770478736360000,9.80135986328125,-4.439275994387269,0.8968170300379394,2.3341468582965432
1647770478746410800,9.81141064453125,-4.078717758387327,0.7009677102014422,1.9303458390280603
1647770478756461800,9.8214619140625,-2.971431639268994,0.5484764705762267,1.5911586000978946
1647770478766513000,9.831512939453125,-1.9279232880562542,0.6098357791632414,1.4399958325974642
1647770478776564000,9.84156396484375,-1.4519845226854085,0.6386287429273129,1.2164362296670674
1647770478786614800,9.85161474609375,-1.402197286209464,0.5287047253966332,0.941242447219789
1647770478796665900,9.861665771484375,-1.627096759441495,0.4008347168087959,0.5098091785296798
1647770478806717000,9.871717041015625,-2.0322978547662496,0.3090238635957241,-0.034906039816886184
1647770478816768000,9.88176806640625,-2.4694763891100884,0.3004799071341753,-0.5872056488778442
1647770478826818800,9.89181884765625,-2.7277888871222733,0.36771921367049215,-0.41241212268210947
1647770478836870000,9.901869873046875,-2.5097709900975227,0.6532078878998756,-0.23718495430946349
1647770478846921000,9.9119208984375,-2.1701310389637944,0.8192389925777912,-0.365364905629307
1647770478856972000,9.921971923828124,-1.600699166381359,0.8437205228835344,-0.5325218725319951
1647770478867023000,9.932023193359376,-1.0455383957356215,0.7202431962966919,-0.7042073497097939
1647770478877074000,9.942073974609375,-0.4164852904051542,0.5561012663662434,-0.7531348275512456
1647770478887124700,9.952124755859375,0.13513269306719303,0.5529179601550102,-0.722656394918263
1647770478897175800,9.96217578125,0.6687479868590831,0.6351438234210014,-0.79806169144921
1647770478907227000,9.972226806640625,1.0324854374170302,0.626526217201352,-1.2074632341384888
1647770478917277700,9.982277587890625,1.2877899857848882,0.6549813273131847,-1.2417311221823095
1647770478927328800,9.992328857421874,1.6478659912258387,0.7119578907713293,-1.2850623143866657
1647770478937379800,10.0023798828125,1.50239310593009,0.9313228184908628,-1.6927197168223558
1647770478947431000,10.012430908203125,1.8195283797889947,0.8393716800242662,-1.6759497838072477
1647770478957482000,10.02248193359375,2.3634125541388986,0.6817766875192522,-1.5124382607348263
1647770478967532800,10.03253271484375,2.629240834608674,0.7089081478118896,-1.6475503494054078
1647770478977583900,10.042583984375,2.2337129920363425,0.8936670415744185,-1.392521695369482
1647770478987635000,10.052635009765625,1.2369698991298674,1.1267390076071024,-1.9122293137095867
