time,seconds_elapsed,z,y,x
1647770122778410200,0.01741015625,-11.03813006954193,-1.229881986695528,4.952991240444779
1647770122788461300,0.02746142578125,-12.327004343432188,-1.083445224803686,6.523471794173121
1647770122798512000,0.03751220703125,-9.907833077192306,-0.5699480054110289,6.404942445382475
1647770122808562000,0.04756201171875,-5.523738287279009,0.10316665222495794,4.327378923217952
1647770122818613000,0.057613037109375,-1.296774087229371,0.6146534085780382,1.6445703106813132
1647770122828664000,0.0676640625,1.8266823431968688,0.8083850056082009,-0.6832455910280346
1647770122838714000,0.077714111328125,3.723193424901366,0.7507084771871566,-1.9607099976316094
1647770122848765200,0.08776513671875,4.6331923003345725,0.6418783923730254,-1.9295504508666692
1647770122858816300,0.097816162109375,4.5329292605966325,0.2886196657314896,-0.9747137780584394
1647770122868866300,0.1078662109375,4.212963147225976,-0.045486908933520316,-0.1282581311225891
1647770122878917000,0.117917236328125,4.170682925379276,-0.17513941702395677,0.13882964788898824
1647770122888967000,0.127966796875,3.7758763828188178,-0.07324994512796401,0.14684914208501576
1647770122899018000,0.13801806640625,2.3414263477802275,0.0036371874585747715,0.2700822846524417
1647770122909069000,0.148069091796875,-0.9384744438111782,-0.44738837819099425,0.9012466830484569
1647770122919119000,0.158119140625,-3.658188745549321,-0.5592828190118074,1.54463051154837
1647770122929170200,0.168170166015625,-4.395055744388699,0.17956278642416,1.4175846788249908
1647770122939221200,0.17822119140625,-3.957983008506894,0.8969912175610661,0.5017942143782973
1647770122949271300,0.188271240234375,-2.6007015533447264,1.2049085812196134,-0.9188995363779365
1647770122959322000,0.198322021484375,-0.9297264892101287,1.2783157627359032,-1.8655062871098518
1647770122969373000,0.208373046875,0.7522212198376655,1.2453519430279731,-2.023912742128223
1647770122979423000,0.218423095703125,2.0753665966421364,0.9127624949276447,-1.7456901133790612
1647770122989474000,0.22847412109375,2.9281828646510837,0.379737568244338,-1.142777849868685
1647770122999525000,0.238525146484375,3.445576506960392,-0.015779752933979034,-0.3777290049009025
1647770123009575200,0.2485751953125,3.352120224627852,-0.1843672640964389,0.06978416871353983
1647770123019626200,0.258626220703125,2.1419880635410546,-0.267936066403985,0.1491670636385679
1647770123029677000,0.268677001953125,0.2542728672325611,-0.2024754599779844,0.10686141508966683
1647770123039727000,0.27872705078125,-1.0322726714491843,0.18255436945557593,-0.5675177095241845
1647770123049778200,0.288778076171875,-1.4876941339701413,0.7258283029526472,-1.3319785254709422
1647770123059829000,0.2988291015625,-0.991812066245079,1.144737021112442,-1.5947921342946587
1647770123069879000,0.308879150390625,0.00035071313381195067,1.3087675996229051,-1.4879517619930207
1647770123079930000,0.31893017578125,0.9363111282974481,1.4216180259943008,-1.432693108368665
1647770123089981200,0.328981201171875,1.933845079320669,1.4069164236858487,-1.3066739883445202
1647770123100031200,0.33903125,3.0163252584844824,1.2578235943272709,-1.0571094449333847
1647770123110082000,0.34908203125,3.7701983371824026,1.2085831780791283,-0.9174024296879768
1647770123120133000,0.359133056640625,4.121265106737614,1.2342916198313236,-0.8515883336491882
1647770123130183200,0.36918310546875,4.153393352404237,1.3085656473100185,-0.871266263065487
1647770123140234000,0.37923388671875,4.168476939767599,1.4784829457715152,-0.908007993876934
1647770123150285000,0.38928515625,3.9338375782877204,1.4407847910180687,-0.8993344196863472
1647770123160335000,0.399335205078125,2.8281536336690185,0.9820721779972315,-0.6686183691300451
1647770123170386200,0.40938623046875,1.1880471705287694,0.4174661181360483,-0.05030161573886871
1647770123180437000,0.41943701171875,0.7673264345109462,0.048242345121502876,0.1854893999941647
1647770123190487000,0.429487060546875,1.1092770006746053,-0.29459377170503137,0.2744219395582564
1647770123200538000,0.4395380859375,1.9566478627592323,-0.9592810849964618,0.28241584265530106
1647770123210589200,0.449589111328125,3.112038964354992,-1.545433498494327,0.12060410923808812
1647770123220639000,0.459638916015625,4.059861666747928,-2.1794629309326408,0.0396438819937408
1647770123230690000,0.46968994140625,4.589139223596454,-3.3369828612506387,0.19451222601383925
1647770123240741000,0.4797412109375,4.517521263584494,-4.885561964294314,0.5774671488694846
1647770123250791200,0.489791259765625,3.4260914697676896,-6.23700989099741,1.132250756765902
1647770123260842000,0.499842041015625,1.6447288622438907,-6.902625425049663,1.8628356065958738
1647770123270893000,0.50989306640625,-0.8209165704011917,-7.172226794317364,2.594193486624956
1647770123280943000,0.519943115234375,-3.9072225430846212,-7.107552369832992,3.0130224175468086
1647770123290994200,0.529994140625,-6.7359928473472594,-6.590625760513544,2.834377038228512
1647770123301045200,0.540045166015625,-8.209142323136328,-5.626753256073593,1.9977891437038777
1647770123311095000,0.550094970703125,-8.39321878759265,-4.561776584896445,0.851471429271251
1647770123321146000,0.56014599609375,-7.578401703110337,-3.7357106689080593,-0.47833340542241926
1647770123331197000,0.570197021484375,-6.3619076057761905,-2.8306586022272704,-1.7003696470536291
1647770123341247000,0.5802470703125,-4.827145431160926,-2.2617104215085506,-2.5098829260393978
1647770123351298000,0.590298095703125,-2.577231245908141,-2.1821008782207962,-3.325329248335957
1647770123361349000,0.60034912109375,0.010460019215941429,-1.615936483001709,-2.987847352018952
1647770123371399200,0.610399169921875,2.5679163050740956,0.3442570895403623,-0.5169190105348825
1647770123381450200,0.6204501953125,3.2696248967707153,-0.44909635115265845,-2.067654999351501
1647770123391501300,0.630501220703125,3.333961467602849,-1.8121821086794137,-3.192435566367209
1647770123401551000,0.640551025390625,2.7291432243406772,-2.03181211707592,-3.2226994794666766
1647770123411602000,0.650601806640625,1.961210640630126,-1.0881997258543967,-2.2766395489625633
1647770123421653000,0.660653076171875,0.789947431641817,0.1557496568992734,-1.2443968342602252
1647770123431703000,0.670703125,-0.6001128420501947,0.782491270416975,-0.9446141156099737
1647770123441754000,0.680754150390625,-1.4946949526429176,0.790191761791706,-0.9181570474475622
1647770123451805200,0.69080517578125,-1.5542109714508057,0.7404822667270898,-0.8756507617600262
1647770123461855200,0.700855224609375,-0.8053361394315958,1.143534075063467,-0.8743100146755576
1647770123471906300,0.71090625,0.11323358047008514,1.5388520742774008,-0.496838491667062
1647770123481957000,0.72095703125,0.8244348076552153,1.2648948478877544,-0.9946100264005362
1647770123492007000,0.7310068359375,1.5517822829991579,1.1217518668442963,-1.507695011730492
1647770123502058000,0.74105810546875,2.168121452707052,1.3489023338735102,-1.224612083468586
1647770123512109000,0.751109130859375,2.567729258069396,1.3638596645087002,-0.6513917783886194
1647770123522159000,0.7611591796875,2.765495809704065,1.043756188493967,-0.7163640167757869
1647770123532210200,0.771210205078125,3.021078005969524,1.3896879332482814,-0.6782597654394805
1647770123542261200,0.78126123046875,2.9675737947970626,2.107421777072549,-0.4384723004814237
1647770123552311300,0.791311279296875,2.8905677120059727,2.587130708631873,-0.5798815165348351
1647770123562362000,0.801362060546875,2.929396916615963,2.8495974037140606,-1.0229927288632839
1647770123572413200,0.8114130859375,2.9675533365309237,3.2358851242542266,-1.2154404966279864
1647770123582463000,0.821462890625,3.140159143424034,3.322570889538526,-1.522018428376317
1647770123592514000,0.83151416015625,3.2059225321888922,3.283662189951539,-2.299883938688785
1647770123602565000,0.841565185546875,3.3088521607875823,3.3913819754362104,-1.506522899211198
1647770123612615200,0.851615234375,2.7638784376353023,3.1955846780478954,-0.8559268012449145
1647770123622666200,0.861666259765625,1.8915853157401084,2.4122815067261456,-0.9601033611647785
1647770123632717000,0.871717041015625,1.0399497819483279,1.7288818941801785,-0.24761633195281027
1647770123642767000,0.88176708984375,0.6730342858761549,1.3380419171631335,0.8646192262664437
1647770123652818200,0.891818115234375,0.6840420021027326,1.4840268436342476,1.680303156711161
1647770123662869200,0.901869140625,0.6927841114848852,1.8780659089535474,2.0118316975817083
1647770123672919000,0.9119189453125,0.6648182461947202,2.1056892541915175,1.789348053319752
1647770123682970000,0.92197021484375,0.07085691251158714,1.821415216448903,1.121459605899453
1647770123693021200,0.932021240234375,-1.4393354689925908,0.5744090764731168,0.5424287148445844
1647770123703071200,0.9420712890625,-2.620700385278463,0.09902852950692176,-0.07054302425682545
1647770123713122000,0.9521220703125,-3.1228315765261647,0.3734066116571426,0.12535685672312974
1647770123723173000,0.962173095703125,-3.3628140525996684,0.9720464585453271,1.0197922523215412
1647770123733223200,0.97222314453125,-3.2652631944298744,1.3684434851676224,0.96064594360888
1647770123743274200,0.982274169921875,-2.940739563885331,1.657203143891692,0.20365239480286834
1647770123753325300,0.9923251953125,-2.638123813766241,1.5840958221048116,-0.3524614387840032
1647770123763375000,1.002375,-1.9969278506994246,1.1734881915614008,-0.5729886882811784
1647770123773426200,1.01242626953125,-1.3524644102692602,0.849601689876616,-0.38693420175015925
1647770123783477000,1.02247705078125,-1.3195967444121837,0.5755643839880824,0.20255846208631992
1647770123793527000,1.032527099609375,-1.455277134490013,0.06155103176683187,0.49699119801074265
1647770123803578000,1.042578125,-1.5703578041315078,-0.507842846892774,0.8819327646389603
1647770123813629200,1.052629150390625,-1.6010744294345378,-0.7452887902259826,1.2952712814509868
1647770123823679200,1.06267919921875,-1.5566016659796238,-0.7779127104550599,1.6604340886369346
1647770123833730300,1.072730224609375,-1.6646727491199969,-0.6745736242726444,1.835184506343305
1647770123843781000,1.082781005859375,-2.026903302246332,-0.6834750158697366,1.7325263881623745
1647770123853831200,1.0928310546875,-2.1213924347579476,-0.7341568630978464,1.4354007598921656
1647770123863882000,1.102882080078125,-2.0347855799287555,-0.6010121289774775,1.1338891716226935
1647770123873933000,1.11293310546875,-1.7895722174644468,-0.29088322674930095,0.7155228897765279
1647770123883983000,1.122983154296875,-1.6264765817165374,-0.025827391956746576,0.31745676089823244
1647770123894034200,1.1330341796875,-1.3618155914604664,0.3396580713123083,-0.06361965473443269
1647770123904085200,1.143085205078125,-1.0308370856881142,0.8573916131004691,-0.6386310810148715
1647770123914135300,1.15313525390625,-0.7879968820959329,1.0786717267915606,-0.8796034449085592
1647770123924186000,1.16318603515625,-0.37991467837691306,0.6981371629506349,-0.21257366014420984
1647770123934237000,1.17323681640625,-0.24965631334781646,-0.5909636131718754,-0.08206862687766552
1647770123944287000,1.183286865234375,-0.6921154184430838,-1.5461933769509195,0.2609942844420671
1647770123954338000,1.193338134765625,-1.672811631911993,-1.895977997741103,0.35973815178871155
1647770123964389000,1.20338916015625,-2.5481238093674183,-1.8414035269886255,0.03829436708092689
1647770123974439200,1.213439208984375,-2.92233355410099,-1.5022800009444355,-0.19905483787953854
1647770123984490200,1.223490234375,-2.3996850600034,-1.2476885692819952,-0.38426381349712607
1647770123994541000,1.233541015625,-1.449661632695794,-1.5504773378804324,-1.0581962172567845
1647770124004591000,1.243591064453125,-0.4983674548000097,-2.054999223656952,-1.6838868604168296
1647770124014642000,1.253641845703125,0.38048517174124713,-2.402698562605679,-1.6461296689525247
1647770124024693000,1.26369287109375,0.938834509295225,-2.512956049874425,-1.3918275756254792
1647770124034743000,1.273742919921875,1.2525509146213532,-2.873010135744512,-1.061900916993618
1647770124044794000,1.283794189453125,1.6076134758144616,-3.3743171511277557,-0.7801677959054708
1647770124054845200,1.29384521484375,2.0332792670190334,-3.543352990579605,-0.8442308104932308
1647770124064895200,1.303895263671875,2.5440146204829213,-3.427662664607167,-1.2563023761093617
1647770124074946000,1.313946044921875,2.3821447271376845,-3.199984958833456,-1.65312259657979
1647770124084997000,1.3239970703125,0.917741452383995,-3.128104840753972,-1.8352993648946285
1647770124095047000,1.334046875,0.06898702698647975,-3.0617262427002188,-2.1883523398309945
1647770124105098000,1.344097900390625,-0.13560147962272168,-2.920815843014419,-2.5783810004651544
1647770124115149000,1.354149169921875,-0.4185556669384241,-2.682063200996816,-2.8045950634270906
1647770124125199000,1.36419921875,-0.8211158923655748,-2.2808131813853976,-2.828429528000951
1647770124135250200,1.374250244140625,-0.5600111332863569,-2.1076137925133107,-2.869677484190464
1647770124145301000,1.384301025390625,0.600847001543641,-2.5650124003261325,-3.0470833848416805
1647770124155351000,1.39435107421875,2.1145278096854687,-3.172388511377573,-2.942242954185605
1647770124165402000,1.404402099609375,3.466674240046739,-3.351986369115114,-2.3830776240736244
1647770124175453200,1.414453125,4.158384000298381,-3.3828649069815873,-1.698518904620409
1647770124185503000,1.4245029296875,4.187726999160647,-3.688654318700731,-1.3688503124028444
1647770124195554000,1.434553955078125,3.8973078827917575,-4.035848630736768,-1.242179742732644
1647770124205605000,1.444605224609375,3.29320918597579,-4.0888571673467755,-1.1020996563911438
1647770124215655200,1.4546552734375,2.4383996983230114,-3.9058515469923614,-1.1864251222848892
1647770124225706000,1.4647060546875,1.8637100513428448,-3.935056306427717,-2.090599237087369
1647770124235757000,1.474757080078125,1.750166089749336,-3.8851477816596627,-3.255402894672751
1647770124245807000,1.48480712890625,1.4731184961289165,-3.339541313561797,-3.795689921313524
1647770124255858200,1.494858154296875,0.5368950461149216,-2.764514981973171,-3.8595378318458793
1647770124265909200,1.5049091796875,-1.1788941422581671,-2.6743004580408334,-3.5737200717926023
1647770124275959000,1.514958984375,-3.203524238875508,-2.522890583911538,-3.0157530115544793
1647770124286010000,1.525010009765625,-4.712673248806595,-2.3020842252120373,-2.2749632863134144
1647770124296061000,1.53506103515625,-5.103845234256982,-2.2327678201407193,-1.6215502312302588
1647770124306111000,1.545111083984375,-4.398798438048362,-1.9827379973053931,-1.5880261472910642
1647770124316162000,1.555162109375,-3.1930589589625593,-1.375797939583659,-1.862180357557535
1647770124326213000,1.565213134765625,-2.2025240730464457,-0.9403522203817963,-2.1925153047293424
1647770124336263200,1.57526318359375,-1.7174445543646812,-0.8072419730529189,-2.047812234762311
1647770124346314200,1.585314208984375,-1.4667057064771651,-0.5894783430501819,-1.7707687327951191
1647770124356365300,1.595365234375,-1.4054729468792677,-0.4217907033368945,-1.8192489783257244
1647770124366415000,1.6054150390625,-2.2845050216406584,-0.20421382807791233,-1.8191431798636912
1647770124376466000,1.6154658203125,-3.5631232744544743,0.2389355973690748,-1.5479799681067465
1647770124386517000,1.62551708984375,-4.302203857690095,0.849719178776443,-1.6431407162696121
1647770124396567000,1.635567138671875,-4.99487749453783,1.453344705122709,-1.8373861080408096
1647770124406618000,1.6456181640625,-6.08835019235909,1.6664625551462173,-1.2696335668474434
1647770124416669200,1.655669189453125,-5.99942629275918,1.9644950691282748,-0.5009457808554172
1647770124426719200,1.66571923828125,-4.941562668457627,1.9292063136041164,0.7864829704016446
1647770124436770300,1.675770263671875,-3.996226522183418,0.8997761721044778,2.4853549262434242
1647770124446821000,1.685821044921875,-3.7047961829453704,-0.5487129096806049,3.5190415561437605
1647770124456871000,1.695870849609375,-3.8483191032171247,-1.2481155625224112,3.8370904377162454
1647770124466922000,1.705921875,-4.844034022119641,-0.5470522829920054,3.7672827419966457
1647770124476973000,1.71597314453125,-6.896514833214878,0.7309644967973232,3.3511458266377447
1647770124487023000,1.726023193359375,-9.361407986187935,2.160409855416417,2.117427038258314
1647770124497074200,1.73607421875,-11.04297926313877,3.6932980528533457,0.8062836494147777
1647770124507125200,1.746125244140625,-11.45937979786992,5.240146386581659,-0.10906184774339199
1647770124517175300,1.75617529296875,-10.843521689677237,5.968779225561023,-1.1650623085215688
1647770124527226000,1.76622607421875,-9.252951703122257,6.32500030913949,-2.3385725657843053
1647770124537277200,1.776277099609375,-7.4831456778794525,6.6739961176395415,-3.5342052230060097
1647770124547327000,1.786326904296875,-6.950197323563694,6.3857882475793355,-4.459683991643786
1647770124557378000,1.7963779296875,-7.007318556189537,5.978460661619901,-4.354691000774502
1647770124567429000,1.80642919921875,-7.874040599954128,5.56685554447174,-3.3331843457505106
1647770124577479200,1.816479248046875,-8.68891379853785,5.189253234690428,-2.1520193359509108
1647770124587530200,1.8265302734375,-7.074827327316999,5.045202491152287,-1.3091864095568657
1647770124597581000,1.8365810546875,-3.547832181820273,4.921239426875114,-1.4718410235390067
1647770124607631000,1.846631103515625,0.7724626283556223,5.238250782093405,-2.522842360855639
1647770124617682200,1.85668212890625,3.2160201478332278,5.4008028124839065,-4.538981400242448
1647770124627733000,1.86673291015625,4.525239875137806,4.725884028035402,-5.164982132264972
1647770124637783000,1.876782958984375,4.2034342713803055,4.597791316607594,-5.179015918314457
1647770124647834000,1.886834228515625,3.0237235520422456,4.8239743999093765,-5.1836418245494364
1647770124657885200,1.89688525390625,2.5842577835440634,5.141258726850151,-3.366621335928142
1647770124667934700,1.906934814453125,2.1444670208752155,5.471676091608405,-1.1484306149333714
1647770124677985800,1.91698583984375,2.2591186514496804,5.0012020213842385,0.1617398372247815
1647770124688036600,1.92703662109375,3.697562724560499,4.043959164217115,1.0203136458471418
1647770124698086400,1.93708642578125,5.154479442951083,3.3063059834361073,0.7366383777152746
1647770124708137500,1.947137451171875,5.680654357609153,3.125654817253351,-0.656271732449904
1647770124718188500,1.9571884765625,6.318465354412794,3.25051862976253,-1.7849696921050549
1647770124728238600,1.967238525390625,7.25362380554378,3.0789000803411004,-2.1913120664194223
1647770124738289700,1.97728955078125,8.392891455334425,2.916362662997842,-2.2554235963240266
1647770124748340500,1.987340576171875,9.697181325021386,2.966827944865823,-2.2969383867561817
1647770124758390800,1.997390869140625,10.995078863322734,2.624039174312353,-2.078891848158836
1647770124768441600,2.007441650390625,11.823209602886438,2.198961412128806,-1.830169308529794
1647770124778492400,2.017492431640625,11.393907501006126,2.500404611337185,-1.8966414300858974
1647770124788542500,2.02754248046875,8.901880841913819,4.576269220629334,-0.5111033099934459
1647770124798593500,2.037593505859375,6.700880617433786,4.152445842421055,-1.7936352291196584
1647770124808644600,2.04764453125,6.571221971863507,2.7298399744331836,-6.225423498100042
1647770124818694700,2.057694580078125,6.02921119017005,3.693839904645085,-8.043682296344638
1647770124828745700,2.067745849609375,5.1196980524271725,4.941923902985454,-8.602164904889463
1647770124838796500,2.077796630859375,4.29983683629781,4.137424214377999,-11.399150662356615
1647770124848846600,2.0878466796875,2.948330749666691,5.2538113393187515,-10.497077903747558
1647770124858897400,2.0978974609375,1.9378964005380868,6.141805303692817,-7.296622989314794
1647770124868948500,2.107948486328125,1.3311483582571149,5.471079879280924,-5.603359521004557
1647770124878998500,2.11799853515625,1.166779341572523,4.668767471584678,-6.082028003600239
1647770124889049600,2.128049560546875,1.1211644223451613,4.622704224067926,-8.315643380481005
1647770124899100400,2.138100341796875,0.05047039643451571,5.589936560329795,-9.9919177200675
1647770124909150700,2.148150634765625,-1.413607153496146,6.6949681785196065,-11.084113237559794
1647770124919201500,2.158201416015625,-2.323962148890644,7.701530070129037,-11.80957036911249
1647770124929252600,2.168252685546875,-3.31107568205595,7.014839014822244,-11.091287659233808
1647770124939302700,2.178302734375,-3.860515736967325,5.411357524245977,-9.725369893151521
1647770124949353500,2.188353515625,-4.235937780100107,3.7913399094104765,-8.955725829347967
1647770124959404500,2.198404541015625,-4.398828833186626,3.0288731898903847,-9.927299994206427
1647770124969454600,2.20845458984375,-3.786589792273938,3.876371477746963,-9.574462707847356
1647770124979505700,2.218505615234375,-2.556492701523006,4.76882008344233,-7.376113874658942
1647770124989556500,2.228556396484375,0.08110942645668982,6.206468622261285,-5.39790533747673
1647770124999606500,2.2386064453125,3.458578904135525,8.313440317478776,-4.381746180960536
1647770125009657600,2.24865771484375,5.710041195613146,9.978215357929468,-4.5597933021247385
1647770125019708700,2.258708740234375,5.691731631940603,10.295915864455699,-5.434829585248232
1647770125029758500,2.268758544921875,1.965539025223255,8.65346196140647,-7.319387194308638
1647770125039809500,2.2788095703125,-5.00300936306715,8.300892970594763,-9.376395127439498
1647770125049860400,2.2888603515625,-8.286372862333058,9.933798708575964,-7.441589678654074
1647770125059910700,2.29891064453125,-7.952947547930479,10.081488685399293,-5.48084373292625
1647770125069961500,2.30896142578125,-3.3988509961426256,10.638709895706176,-2.829915382644534
1647770125080012500,2.319012451171875,5.119578225439787,14.037837955224512,-0.7616700161844492
1647770125090062600,2.3290625,16.716110239505767,17.375150486820935,-8.579944305253028
1647770125100113700,2.33911376953125,26.846622775793072,13.608759140706061,-19.819785864663125
1647770125110164700,2.349164794921875,26.538058346402643,11.391242081189155,-14.163945045793056
1647770125120214500,2.359214599609375,-8.351998303931952,8.839690635460615,30.424953556251523
1647770125130265600,2.369265625,-47.44163430378437,-13.959266522812843,72.09268998606204
1647770125140316400,2.37931640625,-50.640161465024946,-35.07771506493091,69.70585330171585
1647770125150366500,2.389366455078125,-14.371668927818536,-39.774521467041964,69.8979131661415
1647770125160417500,2.39941748046875,10.278637397396563,-35.072024159812926,61.28900463221073
1647770125170468600,2.409468505859375,12.615066083019972,-29.576061768209932,42.18217180683612
1647770125180518700,2.4195185546875,6.6633285931527615,-22.357099526202678,34.69973047783375
1647770125190569700,2.42956982421875,4.2007103993743655,-15.554875672578811,28.825238724732397
1647770125200620500,2.43962060546875,3.044356005704403,-9.596397476279735,19.144354454517362
1647770125210670600,2.449670654296875,2.4599171181261537,-5.052662159508467,10.035053097438812
1647770125220721400,2.459721435546875,1.5149182409822939,-1.3565972722902893,3.5508792944312093
1647770125230772500,2.4697724609375,-1.6241478465080261,0.3709071960568428,1.133953176769614
1647770125240822500,2.479822509765625,-6.270646787661313,1.6024270130872726,-0.7244330492019653
1647770125250873600,2.48987353515625,-10.870512572455405,2.2597966968417165,-2.544004099088907
1647770125260924700,2.499924560546875,-12.569799538838863,2.513929278820753,-3.551373799949884
1647770125270974700,2.509974609375,-10.604341177636384,2.2818147596433755,-4.671591296833753
1647770125281025500,2.520025634765625,-7.963550775009393,1.310030751426518,-5.59416031550467
1647770125291076600,2.53007666015625,-3.839353706473112,-0.20679712256938218,-5.908313358682394
1647770125301126400,2.54012646484375,-1.7385177375316618,-0.30433424447476864,-5.745155179092288
1647770125311177500,2.550177490234375,-0.05384513356462121,0.7162422900922596,-5.632846896773576
1647770125321228500,2.560228515625,1.0263666622757912,1.3756310585841536,-5.03913398489356
1647770125331278600,2.570278564453125,2.087417684441805,2.0972668782830235,-5.684959361326694
1647770125341329700,2.58032958984375,2.805660646831989,2.8334032247602936,-7.867647099524736
1647770125351380500,2.59038037109375,3.5522809779226776,3.676717504930496,-9.970968455541133
1647770125361430500,2.600430419921875,4.0470869408488275,5.064362534174323,-11.733614087635278
1647770125371481600,2.610481689453125,3.7571301812946793,6.064428634023666,-13.000337319993973
1647770125381532700,2.62053271484375,3.152091573280096,6.062675068354606,-13.152006721842287
1647770125391582500,2.63058251953125,2.1518039396345614,5.363958644211292,-12.40560967811346
1647770125401633500,2.640633544921875,1.2911948257923125,4.878959789550304,-10.509282720804213
1647770125411684600,2.6506845703125,0.7623579253833741,4.329189187510312,-6.938821943068504
1647770125421734700,2.660734619140625,-0.072738050083071,3.6741482389643787,-3.619559447425604
1647770125431785500,2.670785400390625,-1.1745699954487383,3.3223788740977644,-2.0092595090061427
1647770125441836500,2.68083642578125,-1.7596293530128895,3.803011350242793,-2.1375380983948706
1647770125451886600,2.690886474609375,-1.72417941557765,4.798879998402297,-3.3070126704007383
1647770125461937700,2.700937744140625,-0.8219606726266443,5.450683572462201,-4.714359009936452
1647770125471988700,2.71098876953125,0.8841077705904841,5.303305730327963,-5.486746819490194
1647770125482038500,2.72103857421875,2.5982901082888246,4.753641511271893,-5.322116229259968
1647770125492089600,2.731089599609375,3.6110754044577478,4.173741436167061,-5.02300293430388
1647770125502140400,2.741140380859375,3.6490938772067425,3.977087814210355,-3.9020349113136525
1647770125512190500,2.7511904296875,3.3848081500038503,3.1150267479941247,-1.394015148797631
1647770125522241500,2.761241455078125,2.941270894283056,2.272303127193451,0.3926999256700277
1647770125532292600,2.771292724609375,2.3718206092610954,2.5368510124638677,0.3029980274349451
1647770125542342700,2.7813427734375,1.8775933230057358,3.2726965593010187,-0.9991139136910437
1647770125552393700,2.791393798828125,1.3899530139252543,3.502011510887742,-2.2489462170034646
1647770125562444500,2.801444580078125,1.3119810087114572,3.131024527592957,-2.214959191727638
1647770125572494600,2.81149462890625,1.3277657300814985,2.250670848838985,-0.7457844647884369
1647770125582545400,2.82154541015625,1.4156415819332002,1.217113982798159,1.1519237177461386
1647770125592596500,2.831596435546875,1.5412307861074805,0.7108291790023445,2.284953349930048
1647770125602646500,2.841646484375,1.799280687660724,0.7553259078547359,1.5600965223580598
1647770125612697600,2.851697509765625,2.257614092105627,0.9305863209098577,-0.4374468298912048
1647770125622748700,2.861748779296875,2.6253885430946946,0.23915245499014853,-0.9707985043108462
1647770125632798700,2.871798828125,2.8768299862936138,-1.0008134110853075,1.4839847580581902
1647770125642849800,2.881849853515625,3.628494449031353,-2.269021913565695,4.589448435676098
1647770125652900400,2.891900390625,4.784566518628597,-4.176948707775772,7.086607196959853
1647770125662950700,2.90195068359375,5.68713027562499,-6.137834061974287,9.613573067486286
1647770125673001700,2.912001708984375,5.974377191698551,-7.0227031723260875,11.053201381945609
1647770125683052800,2.922052734375,5.571721104681491,-6.519360851722955,10.40052073279023
1647770125693102600,2.9321025390625,4.553737655347585,-5.917033840754628,8.14022953042984
1647770125703153700,2.942153564453125,2.3568518804490566,-5.14355648239851,5.408229747614264
1647770125713204700,2.952204833984375,-0.23091303443312644,-4.119907262387872,2.2052017678231
1647770125723254800,2.9622548828125,-2.044296335595846,-3.418003440380096,-0.6042512570291757
1647770125733305600,2.9723056640625,-3.348948024332523,-2.4904922891318795,-2.7864222778767345
1647770125743356700,2.982356689453125,-4.863329674220084,-1.308965752543509,-4.5620881350636475
1647770125753406700,2.99240673828125,-6.28756986541152,-0.5710194340348244,-5.720553237277269
1647770125763457800,3.002457763671875,-6.927315045148134,0.0010609072297811507,-5.823143258658051
1647770125773508900,3.0125087890625,-6.528347291254997,0.42001638714075085,-4.365442111891507
1647770125783558700,3.02255859375,-5.958162554478645,0.31910072871297596,-2.173433003118634
1647770125793609700,3.032609619140625,-5.475477237457037,-0.13047989882528782,-0.8842699754148721
1647770125803660500,3.04266064453125,-4.600113622075319,-0.25561989792734385,-0.35624563349783417
1647770125813710600,3.052710693359375,-3.5865047345638272,-0.0907879399061203,-0.5974772328495979
1647770125823761700,3.06276171875,-2.837595415753126,-0.02736526904851198,-1.462086229982972
1647770125833812700,3.072812744140625,-2.327871431288868,0.01469984874278307,-2.4062644383937117
1647770125843862800,3.08286279296875,-1.9398935657046734,0.16570961763858794,-3.1928391787320374
1647770125853913900,3.092913818359375,-1.5257073460221289,0.3461228834122419,-3.8230537290573117
1647770125863964700,3.102964599609375,-1.2483764054156838,0.47659342988729475,-4.164183626487851
1647770125874014700,3.1130146484375,-0.9447582002557814,0.33105069422572847,-4.094943501523137
1647770125884065500,3.1230654296875,-0.5524284230723977,0.028423838190734386,-3.6304052510887383
1647770125894116600,3.13311669921875,-0.22618922078162432,-0.05702917042821645,-2.9732226143389937
1647770125904166700,3.143166748046875,0.056558630307018756,0.06002455285191535,-2.1650936293184757
1647770125914217700,3.1532177734375,0.22441870397776364,0.14710662397742272,-1.4243313766062258
1647770125924268800,3.163268798828125,0.3571834988698363,-0.07385521754473448,-0.8338070316344499
1647770125934318800,3.17331884765625,0.658923342937231,-0.025595336766541004,-0.27712591955363747
1647770125944370000,3.183369873046875,0.7939571056745945,0.05216857865452766,0.20198563063442707
1647770125954420700,3.193420654296875,0.5203931163862348,0.00046060324907302855,0.5038280582934618
1647770125964470500,3.203470458984375,0.12782996883839368,0.11570815389007329,0.4340834909379482
1647770125974521600,3.213521484375,0.36171763516813515,0.3120806208178401,0.45499885319471356
1647770125984572700,3.22357275390625,1.0502914354816077,0.43778526806533336,0.4769166704922914
1647770125994622700,3.233622802734375,1.968847711379826,0.4320151602312922,0.8461673315137624
1647770126004673800,3.243673828125,2.969930294795334,0.5211018491774797,1.1015747557342053
1647770126014724600,3.253724609375,3.424865142843127,0.6801321351826191,1.2280290523052215
1647770126024775000,3.26377490234375,3.710136667190492,0.9985293918013572,1.1793991691708563
1647770126034825700,3.27382568359375,3.131735013949871,1.0865507896035909,1.5989572911500929
1647770126044876500,3.28387646484375,2.4975156118974087,0.9355851521104573,1.7972388065695761
1647770126054926600,3.293926513671875,1.8823348184444009,0.8502592770025134,1.9242986678183078
1647770126064977700,3.303977783203125,1.5774080149039624,0.9518506427347659,1.6788889059990644
1647770126075028700,3.31402880859375,1.3460323313951492,0.9473790502786635,1.1390233196407555
1647770126085078800,3.324078857421875,1.1092588074307888,0.7583569461137056,0.6718605659216642
1647770126095129900,3.3341298828125,1.0740859333712607,0.5745277344167232,0.638850276723504
1647770126105180700,3.3441806640625,1.2331003642201424,0.3478098135858774,0.8008721457600593
1647770126115230700,3.354230712890625,1.2869208017349243,0.09132745361030101,1.007298973712325
1647770126125281500,3.364281494140625,1.1122510480493306,-0.3691477851688862,1.3509388081371783
1647770126135332600,3.37433251953125,0.29543489870429035,-0.5212906497478484,1.6096517036437987
1647770126145382700,3.384382568359375,0.15988653750829399,-0.42777211583405733,1.6912492058783768
1647770126155433700,3.394433837890625,-0.22439203516654668,-0.3911579569250345,1.1540431941181422
1647770126165484500,3.404484619140625,-0.7433119371950626,-0.389875808160007,0.5518301649183035
1647770126175534800,3.414534912109375,-1.4813281060695647,-0.1569540642529726,-0.06587269435822964
1647770126185585700,3.424585693359375,-2.31643526051715,0.17439473613649606,-0.4562526526480913
1647770126195636700,3.43463671875,-2.7069384067952633,0.3877095700368285,-0.556679943037033
1647770126205686800,3.444686767578125,-2.3341063801556823,0.2558458156377077,-0.4879869305610656
1647770126215737600,3.454737548828125,-1.6924692491926252,-0.040083588585257526,-0.27537176936268803
1647770126225788700,3.46478857421875,-0.9519589254148304,-0.022552900330722332,-0.20889701745808123
1647770126235838700,3.474838623046875,-0.5892005490221083,-0.006085749654471874,-0.11824001045525073
1647770126245889500,3.4848896484375,-0.43492695602476594,-0.32866993656903504,-0.285564077553153
1647770126255940600,3.494940673828125,-0.04616838839165866,-0.6662523706510662,-0.5754004255980253
1647770126265990700,3.50499072265625,-0.04429974497556686,-0.6655436378598213,-0.2667857273250818
1647770126276041700,3.515041748046875,-0.016731354570388792,-0.08141805401444435,-0.1395610309034586
1647770126286092800,3.5250927734375,1.173836931933835,0.9211255418643355,-0.010140870264172553
1647770126296142600,3.535142578125,2.286201304164529,0.7446019770056009,-0.6621195086300373
1647770126306193700,3.545193603515625,2.0634407426573333,-0.35296383534818887,-1.6224702686846255
1647770126316244500,3.555244384765625,0.9058255352713167,-1.1471434977322816,-1.0625146649777888
1647770126326294800,3.565294677734375,-0.005931143614649772,-0.6618021132439375,0.017705168038606642
1647770126336345600,3.575345703125,-0.48752749635577197,0.2549573423653841,0.7512742943763733
1647770126346396700,3.585396728515625,-0.5778641853630543,0.6037281099379063,1.1541501616239547
1647770126356446700,3.59544677734375,-0.5373064033947885,0.6526596063673495,1.0820493865311145
1647770126366497800,3.605497802734375,-0.3718716571748256,0.5961147123247384,0.5001379716038704
1647770126376548900,3.615548828125,0.050558805370330806,0.4877700729399919,-0.22472937736213205
1647770126386598700,3.6255986328125,0.28096505932509896,0.15434709662497043,-1.0444178672730922
1647770126396649500,3.6356494140625,-0.3514611757002771,0.0838710001245141,-1.6541156992703676
1647770126406700500,3.645700439453125,-1.1571101804733275,0.6057032094031573,-1.378643976664543
1647770126416751600,3.655751708984375,-0.5071316298834979,0.5768208137899636,-0.22858663731217382
1647770126426801700,3.6658017578125,0.5164636679828166,0.20690496685802937,0.5400713380634784
1647770126436852700,3.675852783203125,1.001690047789365,-0.2283683183863759,0.6757914756298065
1647770126446902800,3.68590283203125,1.1519601042337715,-0.8723191331192851,1.0522387701570988
1647770126456953900,3.695953857421875,0.9871627791345119,-0.8671963832780718,0.9878554375737905
1647770126467004700,3.706004638671875,0.5146326531633735,-0.43421676192879677,0.18545535159409046
1647770126477054700,3.7160546875,0.14660861132740974,-0.6106798287719488,-0.31058219895362854
1647770126487105500,3.72610546875,-0.28312428318560123,-0.7337807232618332,-0.3484697387993336
1647770126497156600,3.736156494140625,-0.5166781875163317,-0.3787140704154968,-0.2495323947072029
1647770126507207700,3.746207763671875,-0.5697305632680654,0.08878098399788141,-0.06380056425929069
1647770126517257700,3.7562578125,-0.723023766925931,0.32423487673103807,0.16404197668731213
1647770126527308800,3.766308837890625,-0.633003596521914,0.23127748383134603,0.40535248649418354
1647770126537359600,3.776359619140625,-0.34684009177088737,0.1591068583726883,0.4933212773263454
1647770126547409700,3.78640966796875,-0.007922317431867122,0.24811083747148513,0.5113140301346779
1647770126557460700,3.796460693359375,0.2049738526649773,0.3698354751721024,0.46151744130849837
1647770126567511800,3.80651171875,0.24572248103022573,0.40471944928765297,0.13361936589479445
1647770126577561600,3.8165615234375,0.03026712796986103,0.2547092128232121,-0.18997370580136774
1647770126587612700,3.82661279296875,-0.059429363437741994,0.06705138274878263,-0.04863163670003414
1647770126597663700,3.836663818359375,0.025791736121475697,0.06298983239829539,0.3324421485841274
1647770126607713800,3.8467138671875,0.22353709883764386,0.2242591295018792,0.5407569822400808
1647770126617764600,3.8567646484375,0.4034761712282896,0.5395335779249668,0.5710264482975006
1647770126627815700,3.866815673828125,0.5620803407758475,0.5928977961048484,0.2792915731549263
1647770126637865700,3.87686572265625,0.7656126163303851,0.46846156135797495,-0.13618833959996698
1647770126647916800,3.886916748046875,0.8584452138066291,0.29834114153981206,-0.2942787144064903
1647770126657967900,3.8969677734375,0.8489005558699368,0.13156009527742862,-0.14628653976619244
1647770126668017700,3.907017578125,0.6441179879933595,-0.030803134542703628,0.0843874252140522
1647770126678068700,3.91706884765625,0.07037702004015445,-0.06950725146830082,0.08792728977799415
1647770126688119600,3.92711962890625,-0.15833090556412935,-0.09408318205922842,0.08215104446411133
1647770126698169300,3.93716943359375,-0.27254998994022606,-0.003540449085831642,-0.19731004003882407
1647770126708220400,3.947220458984375,-0.3966197294622659,-0.01897182697355747,-0.32773908545970915
1647770126718271500,3.957271484375,-0.45719607097804543,0.026136311775445936,-0.2915162639558315
1647770126728321500,3.967321533203125,-0.4731126020342111,0.13057692945897578,-0.3414566451668739
1647770126738372600,3.97737255859375,-0.4893821843117475,0.10540741688907146,-0.42282676838636396
1647770126748423700,3.987423583984375,-0.4589069665491581,0.03202653885781765,-0.3778372875809669
1647770126758473700,3.9974736328125,-0.29781156470775605,-0.1089957967698574,-0.1254611938804388
1647770126768524500,4.007524658203125,-0.18487988979369402,-0.1319683838173747,0.05451777212917804
1647770126778575600,4.01757568359375,-0.029974867025017737,-0.14063772022426127,0.027270868763327596
1647770126788625400,4.02762548828125,0.01926467244029045,-0.2147600642725825,0.05955693534016609
1647770126798676500,4.037676513671875,-0.1164163021594286,-0.11745324399173258,-0.018111995273828504
1647770126808727600,4.0477275390625,-0.27792613002061844,-0.0598830985546112,-0.20407821899950504
1647770126818777600,4.057777587890625,-0.3696995738327503,-0.12952946623265743,-0.26932430589199063
1647770126828828700,4.06782861328125,-0.3026671880453825,-0.2312301375582814,-0.03000526216328144
1647770126838879500,4.07787939453125,-0.19007833521962164,-0.0987283775165677,0.13212883507609366
1647770126848929500,4.087929443359375,-0.11385054332464933,0.0010986088916659354,0.0032592940568923947
1647770126858980600,4.097980712890625,-0.029890403611958025,-0.04678630109429359,-0.201426243185997
1647770126869031700,4.10803173828125,0.09863163914382457,-0.050990182524919506,-0.18322890771627426
1647770126879081500,4.11808154296875,0.21949995227605104,-0.03250321645885706,0.03688625384867191
1647770126889132500,4.128132568359375,0.22370120335817337,0.029418986707925796,0.13023732224106788
1647770126899183600,4.13818359375,0.0660898442402482,0.0672705784574151,-0.005307458758354187
1647770126909233700,4.148233642578125,0.029260873536765573,0.10215016865879296,-0.1724433098077774
1647770126919284500,4.158284423828125,0.07525777781903743,0.07231529462635516,-0.1703074668228626
1647770126929335600,4.16833544921875,0.016614450192451478,0.10874152974784373,-0.0894891322672367
1647770126939385600,4.178385498046875,-0.029825813943147657,0.13718261133432388,0.017352701339125632
1647770126949436700,4.188436767578125,-0.04508417335152626,0.11444354078173637,0.07243921326696873
1647770126959487700,4.19848779296875,-0.13964374075084923,0.09383739060461521,0.03149170132875442
1647770126969537500,4.20853759765625,-0.08208031731545924,-0.07153028172850609,0.08892799125313758
1647770126979588600,4.218588623046875,-0.08965250613540411,-0.0472217699021101,0.02651917361319065
1647770126989639400,4.228639404296875,0.06617781478464603,-0.08171557565629482,-0.05327040241658687
1647770126999689500,4.238689453125,0.12095014619678258,0.005650865368545055,-0.31653263179063795
1647770127009740500,4.248740478515625,-0.3456184410214424,0.23128449809402227,-0.3187438780993223
1647770127019791600,4.25879150390625,-0.19470599502027033,0.24935382326990366,0.08413783436715602
1647770127029841700,4.268841552734375,0.17204934205412864,0.3543558742284775,-0.15314648866355418
1647770127039892700,4.278892822265625,0.6838833044096827,0.08750409592986107,-0.5438076019823551
