time,seconds_elapsed,z,y,x
1647770173227912700,0.01191259765625,-0.5456196198403835,-1.5077721686199306,2.2911862529702485
1647770173237963800,0.0219638671875,-0.06577040302753448,-1.3722186197921633,1.8841086962491274
1647770173248014600,0.0320146484375,0.285709623503685,-1.547053793172538,2.296936194799095
1647770173258065700,0.042065673828125,0.408182741484046,-1.9223273677453399,3.1267116328299043
1647770173268115700,0.05211572265625,-0.1834790830850601,-1.6381050601899623,2.9108246103540063
1647770173278166500,0.06216650390625,-0.4369587541133165,-1.4197498940348625,2.853634988667071
1647770173288217600,0.072217529296875,-0.15740180802047252,-1.4542919228449462,2.84331320887804
1647770173298268700,0.0822685546875,-0.384353537607193,-1.478149476033449,2.964730972586572
1647770173308318700,0.092318603515625,-0.924490926644206,-1.0320581519156693,3.1261408472046255
1647770173318369500,0.10236962890625,-1.5758154850155115,-0.7513567119628191,3.3377050380453466
1647770173328420600,0.112420654296875,-1.811204203557968,-0.5203367100238799,3.452513905008137
1647770173338471700,0.1224716796875,-0.6612409722298384,-0.24904168858081102,2.9535131207406518
1647770173348521700,0.132521728515625,0.9462889169543981,-0.010559387937188148,2.3746011798903344
1647770173358572800,0.14257275390625,2.105413944381475,0.11772504667043686,1.9448589330270885
1647770173368623600,0.15262353515625,3.0076363405942916,0.12249182268083095,1.4813763291254638
1647770173378674700,0.1626748046875,3.5674861458390947,0.023952537995576857,1.3570631362363694
1647770173388724500,0.172724365234375,3.407580246043205,-0.15671996323615311,1.5705232238262892
1647770173398775600,0.182775634765625,2.7215356719464063,-0.12626228113025426,1.5498746958121656
1647770173408826600,0.19282666015625,2.3712165058881043,-0.44254181494265793,1.8803966899886726
1647770173418877700,0.202877685546875,2.0684142932862044,-0.8258926052480936,2.2448227073326708
1647770173428927700,0.212927734375,1.7694529740214346,-0.6750602387458086,2.1561998365059494
1647770173438978600,0.222978515625,1.9360972421616314,-0.38692221905142066,1.996186384682357
1647770173449029600,0.233029541015625,2.5076772326886654,-0.5274640776857733,1.8874641441568731
1647770173459080700,0.243080810546875,2.8666490762799977,-0.7370397250577807,1.7775003791376947
1647770173469130800,0.253130859375,2.6706390129238367,-0.7913987994939088,1.4983952684655786
1647770173479181800,0.263181884765625,2.0291589722186325,-0.7755965424671769,1.2101556150276214
1647770173489232600,0.273232666015625,1.4880740731984377,-0.6698495183601975,1.168913504057005
1647770173499282700,0.28328271484375,1.4903899489253758,-0.5956280978515743,1.0169091711658984
1647770173509333500,0.29333349609375,1.7597867355316876,-0.6251525907605886,0.8598463127762078
1647770173519384600,0.303384521484375,2.069497996869683,-0.7405246445640921,0.9222247352778911
1647770173529435600,0.313435546875,2.3733517643511295,-0.857419670151174,1.1798077499717474
1647770173539486700,0.32348681640625,2.5313211431264877,-0.9453913835927843,1.3882146458253264
1647770173549536800,0.333536865234375,2.4777117180138823,-1.0101818356722592,1.4507777772441506
1647770173559587800,0.343587890625,2.3998995795369145,-1.0088497102856635,1.403650407627225
1647770173569638700,0.353638671875,2.3823563240617514,-0.917922361908853,1.2807068956561385
1647770173579689700,0.363689697265625,2.285107663708925,-0.8440987085461616,1.0507847719565033
1647770173589739500,0.373739501953125,2.1110925745397804,-0.7795964257583021,0.7712513528697192
1647770173599790600,0.38379052734375,2.0510493169873953,-0.7443503403320908,0.5637669056233018
1647770173609841700,0.393841552734375,1.9958277805030344,-0.8289680671706795,0.5890880285583436
1647770173619892500,0.403892578125,1.9123796819657086,-0.97496906799376,0.7504467575110495
1647770173629942500,0.413942626953125,1.7235709282904863,-1.1057739609897137,0.8870578525677323
1647770173639993600,0.42399365234375,1.3258715868979691,-1.1240957996219396,0.8668189282678067
1647770173650044700,0.434044677734375,0.9595563948065042,-1.0310217946052551,0.8191771063227206
1647770173660095700,0.444095703125,0.7871896573662758,-0.9052034578502177,0.7561798943355679
1647770173670145800,0.454145751953125,0.7654922048211097,-0.8579308345437049,0.6942171399626881
1647770173680196900,0.46419677734375,0.8347714927524328,-0.8632797943562268,0.66429897156097
1647770173690247400,0.474247314453125,0.9478349773526191,-0.838275409220159,0.7481691679678857
1647770173700298500,0.484298583984375,1.0380354727596044,-0.8926593258365988,1.0537767933793365
1647770173710349300,0.494349365234375,1.190326805898547,-1.1940005259752273,1.3120515897296368
1647770173720400400,0.504400390625,0.8689356281608343,-1.2830445448234677,1.473004952751845
1647770173730451500,0.514451416015625,0.3705570674449205,-1.2182158065602182,1.6452822583429514
1647770173740502300,0.524502197265625,-0.10908405957520008,-1.2263687178775668,1.651087583620846
1647770173750552000,0.534552001953125,-0.6860264539182186,-1.3410618495061992,1.5183352098189293
1647770173760603100,0.54460302734375,-1.4320096561491489,-1.4061544994026423,1.4647668473690747
1647770173770654200,0.554654296875,-1.940057377964258,-1.4120964566722511,1.5253030030049384
1647770173780705300,0.564705322265625,-2.0044155761063096,-1.5036659023448824,1.4879191748976706
1647770173790755300,0.57475537109375,-1.6470938378095625,-1.704574259136617,1.352205759333074
1647770173800806400,0.584806396484375,-1.2804559896349905,-1.8525708176910876,1.2563396393798292
1647770173810857200,0.594857177734375,-1.1536749453276396,-1.940947312541306,1.2454954431518912
1647770173820908300,0.604908203125,-1.3838222560852764,-2.0268395893603564,1.1744299293909222
1647770173830958300,0.614958251953125,-1.674630079510808,-2.126886940521002,1.2526342089906335
1647770173841009400,0.625009521484375,-1.3745721971809863,-2.149175636957586,1.5727588739238678
1647770173851060500,0.635060546875,-1.0132733719468117,-2.124448607458174,1.7032134921774267
1647770173861111000,0.645111083984375,-0.9806021054446696,-2.008662127634883,1.6325820589847861
1647770173871161300,0.655161376953125,-1.3306056296825408,-1.6743696750089525,1.3391782277166842
1647770173881212200,0.665212158203125,-2.0567542506307364,-1.2495379965409636,1.0224594987694173
1647770173891263200,0.67526318359375,-2.915710921090841,-0.9303057504028082,0.7635141827464104
1647770173901314300,0.685314208984375,-3.4605116257637736,-0.7162371755257249,0.6685908966012298
1647770173911364400,0.6953642578125,-3.5631308732390403,-0.5905450954988598,0.5731470937132835
1647770173921415400,0.70541552734375,-3.2861966768652198,-0.5901429444387555,0.48911176987253124
1647770173931466200,0.71546630859375,-2.8183400956630704,-0.6891138985395431,0.4998677763603627
1647770173941517300,0.725517333984375,-2.166440952274203,-0.7672761656284331,0.5436517173008993
1647770173951567000,0.735567138671875,-1.5249942293167114,-0.8555611828029155,0.44952842242699115
1647770173961618200,0.7456181640625,-1.0044657961130141,-0.9025850920453667,0.22055874061398206
1647770173971669200,0.755669189453125,-0.574785508570075,-0.8468518066465854,-0.06617207916360349
1647770173981720300,0.76572021484375,-0.15698738200068474,-0.8053621506556868,-0.34317082867361604
1647770173991770400,0.775770263671875,0.0637345132857561,-0.7784259206742048,-0.4056171287797391
1647770174001821200,0.7858212890625,0.07848959934711455,-0.7564248090073465,-0.013793401422351598
1647770174011872300,0.795872314453125,-0.06425298420190811,-0.7430117852047086,0.7032112513445318
1647770174021923300,0.80592333984375,-0.2706821502417326,-0.7175193242907524,1.1923002979286015
1647770174031973400,0.815973388671875,-0.49721770024299616,-0.5726321299284696,1.2469745757937432
1647770174042024400,0.8260244140625,-0.7098533197075129,-0.30054654262959957,1.0649966179866344
1647770174052075300,0.8360751953125,-0.7495902868121862,-0.015925298884510993,0.7839736179292202
1647770174062126000,0.8461259765625,-0.5609633194446564,0.14381985739171504,0.6247706057056784
1647770174072176000,0.856176025390625,-0.08244622801840305,0.17334814969301224,0.5854278255503624
1647770174082227200,0.866227294921875,0.5128215120881796,0.17121756740510463,0.5581559338737279
1647770174092278300,0.8762783203125,1.1824661555260418,0.20337708499282597,0.4480801598474383
1647770174102329300,0.886329345703125,1.846044630792737,0.22936522046923635,0.25639307425692676
1647770174112379400,0.89637939453125,2.3586726661354303,0.2498071199953556,0.007524696416407823
1647770174122430200,0.90643017578125,2.4235668708503244,0.27171061650663614,-0.2831775477427989
1647770174132481300,0.916481201171875,1.8458230969965457,0.5199389428779483,-0.28656141802743074
1647770174142532400,0.926532470703125,1.1349813507735729,0.8364677752763032,0.06043766369745135
1647770174152582100,0.93658203125,0.8419985213965177,0.9284949015885591,0.27756781810224057
1647770174162633200,0.94663330078125,0.8734387847989797,0.9351052596390247,0.3330691944412887
1647770174172684300,0.956684326171875,1.2216232769161461,0.9485223750948906,0.3868900703474879
1647770174182735000,0.966735107421875,1.9022084165632724,0.9494289685457944,0.4744025687795132
1647770174192786200,0.9767861328125,2.5390403392016885,0.9325874315991998,0.5229421432819217
1647770174202836200,0.986836181640625,2.8286136523962018,0.9119248750597237,0.5714027342639864
1647770174212887300,0.99688720703125,2.863373415610194,0.9061953914970159,0.6486618419680744
1647770174222938400,1.0069384765625,2.6323592588901517,0.7791925211325287,0.7367685069009661
1647770174232988400,1.016988525390625,2.256680026125908,0.6460396037057041,0.823821644192934
1647770174243039500,1.02703955078125,1.9077415007710457,0.6616618279904126,0.8651400352701544
1647770174253090300,1.03709033203125,1.5804770470857619,0.7237076575368643,0.921279271121323
1647770174263141400,1.047141357421875,1.2230571091115474,0.6594067425400019,0.8579504160270094
1647770174273192200,1.057192138671875,0.6666670889317989,0.5869838958859444,0.8784427305661141
1647770174283242200,1.0672421875,0.13942249921560287,0.5609484141364693,1.1115711029611528
1647770174293293300,1.077293212890625,-0.10307692811489104,0.381419822242856,1.5049541885897517
1647770174303344000,1.08734423828125,-0.16591770743131637,0.052986617039144035,2.068774651031196
1647770174313395200,1.097395263671875,-0.23361411008536814,-0.2580748898640275,2.596962951338291
1647770174323445200,1.1074453125,-0.2957867808818817,-0.5518862790197133,2.863267324887216
1647770174333496300,1.117496337890625,-0.3146305975615978,-0.7333139825329185,2.869173918582499
1647770174343547400,1.12754736328125,-0.40726445759534835,-0.6609177316248417,2.657880361376703
1647770174353598500,1.137598388671875,-0.6049228726804257,-0.45834641005694865,2.3045605521976946
1647770174363648300,1.147648193359375,-0.8492156131684779,-0.2600666482031345,1.9805030778601764
1647770174373699000,1.157698974609375,-1.3338836284399032,-0.183755269677937,1.6539920728906987
1647770174383750100,1.167750244140625,-1.9380068751752375,-0.27905717987716194,1.4604007611140608
1647770174393801200,1.17780126953125,-2.4247552038520572,-0.447674209395051,1.7229367220401763
1647770174403851300,1.187851318359375,-2.5837913350760937,-0.7094038223743439,2.676567233929038
1647770174413902300,1.19790234375,-2.6436703419774767,-0.7805994653210043,3.6658448132604358
1647770174423953400,1.207953369140625,-2.694845817941427,-0.7148726091742515,4.3756095779016615
1647770174434004200,1.218004150390625,-2.1621973233550786,-0.6059188979804515,4.7609977192535995
1647770174444054300,1.22805419921875,-0.8495663263022899,-0.35798224803209305,4.677633499607444
1647770174454105300,1.238105224609375,0.6403156731009483,-0.030951895363628863,3.9964173685804005
1647770174464156400,1.248156494140625,1.869774465948343,0.2298077035397291,2.906339281633496
1647770174474207200,1.258207275390625,2.5864082395762202,0.5530851334154605,1.9910195034384726
1647770174484257300,1.26825732421875,2.844462378913164,0.828390851804614,1.6014046843022107
1647770174494308400,1.278308349609375,2.786007267335057,0.9552566517859696,1.4307123098149894
1647770174504359200,1.288359130859375,2.59998668307364,1.0045207411706447,1.2855527282521129
1647770174514410200,1.29841015625,2.325144490543008,1.0416437263846396,1.076288484916836
1647770174524460300,1.308460205078125,1.81918292735219,1.1447618632927536,0.8912289277072996
1647770174534511400,1.318511474609375,1.05514559751451,1.2442802221432328,0.9527600126646458
1647770174544562400,1.3285625,0.1366752463340759,1.2546470101177691,1.1293296086221933
1647770174554613200,1.33861328125,-0.8723685252189636,1.3209025663137435,1.2125050276979803
1647770174564663300,1.348663330078125,-1.6951666715830565,1.4259861580759285,1.3228539926424623
1647770174574714000,1.358714111328125,-2.0332541325777767,1.440377671521902,1.4462914256103336
1647770174584765200,1.36876513671875,-1.862230626440048,1.355775142252445,1.5750138132438063
1647770174594816300,1.378816162109375,-1.4399942251622675,1.1811486431866884,1.6713053190022706
1647770174604866300,1.3888662109375,-0.8797340855509043,0.9628849547073245,1.616738154773414
1647770174614917400,1.39891748046875,-0.38442426475584507,0.7966974904239177,1.5395074694462119
1647770174624968200,1.40896826171875,0.17177169415652752,0.6795180949375033,1.377201522771269
1647770174635019300,1.419019287109375,0.6078495737820864,0.5051081612318754,1.071032025693357
1647770174645069300,1.4290693359375,0.7112842292934656,0.3631356852725148,0.7783110621228814
1647770174655120400,1.439120361328125,0.5247580335974693,0.38989918903559445,0.6011123014163225
1647770174665171500,1.44917138671875,0.1848480333507061,0.45076925280094143,0.560689397874102
1647770174675222300,1.45922216796875,-0.15021101973354817,0.4575304174989462,0.586694703681022
1647770174685272300,1.469272216796875,-0.3282476195037365,0.3536944877102971,0.7055657055161892
1647770174695323100,1.4793232421875,-0.26022388459146023,0.2448372226282954,0.9304344913490116
1647770174705374200,1.489374267578125,-0.008605331259965897,0.20950462796241043,1.1635692934848367
1647770174715425500,1.499425537109375,0.2720575302481651,0.09191256002187728,1.343580262067914
1647770174725475600,1.5094755859375,0.780741796401143,-0.06436141301244497,1.3909338416561483
1647770174735526700,1.519526611328125,1.4267366841822862,-0.17717150737345216,1.2482559939064084
1647770174745577500,1.529577392578125,1.8855951354146003,-0.21690525960773227,0.9383043479412794
1647770174755628500,1.539628662109375,2.1374802307277916,-0.22651684530079363,0.5909130520284176
1647770174765678600,1.5496787109375,2.225416872856021,-0.27674831841289993,0.24629852735251187
1647770174775729400,1.5597294921875,2.1771447171181437,-0.3244280612155795,-0.06944675345271825
1647770174785780500,1.569780517578125,1.9708838933825492,-0.2709516148328781,-0.41243981440663335
1647770174795831600,1.57983154296875,1.5597317806988953,-0.3062751494094729,-0.5390516396269202
1647770174805881600,1.589881591796875,0.9332990869998932,-0.5716507176756859,-0.27143457604423166
1647770174815932400,1.599932373046875,0.42315877681970593,-0.9077733083382248,0.2899858395181596
1647770174825983500,1.6099833984375,0.24580899026989936,-1.1583224788725375,0.8907685436539351
1647770174836034600,1.62003466796875,0.58135962626338,-1.3230100599870085,1.4198784888505935
1647770174846085600,1.630085693359375,1.2138555655241012,-1.4034414410516618,1.6281097358763217
1647770174856135700,1.6401357421875,1.6593401559203862,-1.2883785993278025,1.5242092164188623
1647770174866186500,1.6501865234375,1.75545542832911,-0.9333476023167371,1.1991998481839894
1647770174876237600,1.660237548828125,1.7097236047238111,-0.4700841941237449,0.6966406407825648
1647770174886288600,1.67028857421875,1.7950754910558462,-0.181675833055377,0.2389363280214369
1647770174896338400,1.68033837890625,2.2823785310059783,-0.11494681412875651,-0.2045046277180314
1647770174906389500,1.690389404296875,3.0529402941763397,-0.18980068732202052,-0.5861848544627428
1647770174916440600,1.700440673828125,3.74344009411633,-0.3433893667951226,-0.783035021904856
1647770174926491400,1.710491455078125,4.198924685001373,-0.4688660505056381,-0.720053665073961
1647770174936541400,1.72054150390625,4.281759035554528,-0.6168412740111351,-0.1606210623279214
1647770174946592500,1.730592529296875,3.9804415085524316,-0.7697144986912607,0.7388036659903824
1647770174956643600,1.7406435546875,3.410902083942294,-0.794052528873086,1.3576894514411688
1647770174966694700,1.750694580078125,2.6588392695367333,-0.550365060801804,1.4976475188381968
1647770174976744400,1.760744384765625,1.924119219598174,-0.2966778845027089,1.3612518200978636
1647770174986795500,1.77079541015625,1.1234130780547857,-0.1880439067825675,1.1007770294852555
1647770174996846300,1.780846435546875,0.31053660624623297,-0.13744301583617924,0.8919555614814162
1647770175006897400,1.7908974609375,-0.12175123344659805,-0.12364245402067899,0.8750294149912893
1647770175016947500,1.800947509765625,0.06493395220339297,-0.28726678981781006,0.895252411069721
1647770175026998500,1.81099853515625,0.8827046257942914,-0.693314272838831,0.8650852363429963
1647770175037049600,1.821049560546875,1.960617350912094,-1.0942577107191085,1.0175559446368365
1647770175047100400,1.831100341796875,3.0426316661298274,-1.466711551696062,1.4532028124339877
1647770175057150700,1.841150634765625,3.7320325649172066,-1.896569241632521,1.6917273447841406
1647770175067201500,1.851201416015625,4.0182273415893315,-2.265257008074224,1.910735275759548
1647770175077252600,1.861252685546875,3.928835824477672,-2.4513380903512236,2.2270959119841454
1647770175087303700,1.8713037109375,3.425720882889628,-2.406866495940089,2.3799532084427772
1647770175097353500,1.881353515625,2.748976052057743,-2.2008587701827285,2.2378189660504457
1647770175107404500,1.891404541015625,2.1283160965412855,-2.0591994518257675,1.9941317902401088
1647770175117455400,1.901455322265625,1.5468530099034308,-2.1142123139955102,1.9574416434854267
1647770175127506400,1.91150634765625,1.063504845058918,-2.312581361567974,2.1662162036076187
1647770175137556500,1.921556396484375,0.9260083454698324,-2.5288819332808257,2.5028707091897724
1647770175147607600,1.931607666015625,1.1605582751005887,-2.696792860355973,2.8733482816576954
1647770175157658600,1.94165869140625,1.7658850524067877,-2.7705554311811924,3.033256519541144
1647770175167709700,1.951709716796875,2.52010767519474,-2.749994581450522,2.849108451153338
1647770175177759500,1.961759521484375,3.3631542443394657,-2.7183918209627267,2.3969720016524194
1647770175187810300,1.971810302734375,4.293315033313632,-2.6778534743472933,1.9588912577718496
1647770175197861400,1.981861328125,5.098908362376689,-2.5996646115124222,1.6864314303331076
1647770175207912400,1.991912353515625,5.644167332211136,-2.600092189274728,1.5685700439319015
1647770175217962500,2.00196240234375,5.852648170083761,-2.666467864719033,1.7336420943193136
1647770175228013600,2.012013671875,5.698389336264133,-2.6715812622100112,2.00572022896409
1647770175238064600,2.022064697265625,5.191388493153452,-2.583896549016237,2.4266367798149586
1647770175248115500,2.032115478515625,4.726260460132361,-2.3250366462543606,2.9390751378044486
1647770175258165500,2.04216552734375,4.552046048998832,-1.9262036246567964,3.5290216828882692
1647770175268216600,2.052216552734375,4.946221307918429,-1.461634979084134,4.084597464075684
1647770175278267600,2.062267578125,5.4004801564008,-0.9213996826305985,4.225124125140905
1647770175288318700,2.072318603515625,5.746585504156351,-0.1930693337291479,3.9308752213507887
1647770175298368500,2.082368408203125,6.150517602458596,0.6999266767159104,3.162078714287281
1647770175308419600,2.092419677734375,6.6422980800837275,1.3819754591748117,2.0453309393405914
1647770175318470400,2.102470458984375,7.051737543630599,1.6635107196033,0.8607783329293132
1647770175328521500,2.112521484375,7.449157483559847,1.9700603020399807,-0.33083222916945815
1647770175338571500,2.122571533203125,7.716198646950721,2.660796248823404,-0.9064100571610033
1647770175348622600,2.13262255859375,7.630420644161105,2.9701123733639716,-0.7391381586417556
1647770175358673700,2.142673583984375,7.371375740221143,2.7651608786612747,0.6987282607115805
1647770175368724500,2.152724365234375,7.73117760489583,1.773115295921266,2.3009055368214844
1647770175378775600,2.162775634765625,8.601571615171432,0.6847092338398099,4.272520667088031
1647770175388825300,2.172825439453125,8.614865396508574,0.7819812750682235,6.7881409677356475
1647770175398876400,2.18287646484375,7.441395617386698,0.8442243807524442,8.621166542479395
1647770175408927500,2.192927490234375,4.27504112547636,0.32676468746960163,9.946498031151295
1647770175418977500,2.2029775390625,-0.282393630823493,0.841167915791273,11.530844613146781
1647770175429028600,2.213028564453125,-7.934326434090733,4.825045828533172,10.454054754579067
1647770175439079400,2.223079345703125,-16.626215449047088,16.43304850016236,8.634645617255568
1647770175449130500,2.233130615234375,-17.666517113173008,20.4029820587039,7.822600920096039
1647770175459181600,2.243181640625,-4.838241994714736,15.383528925836085,5.169767612975836
1647770175469231600,2.253231689453125,14.955620324140787,15.39948403533697,18.524237519836426
1647770175479282700,2.26328271484375,-50.586998030114174,30.974027700459956,23.744050727963447
1647770175489333500,2.27333349609375,-71.34156065311431,24.232030644261837,-3.6509190468072887
1647770175499384600,2.283384521484375,-68.43538328404426,13.325906660199164,-5.630698778828978
1647770175509434400,2.293434326171875,-69.5673403185606,8.83352451404631,-4.4293481823518865
1647770175519485400,2.3034853515625,-67.13692168211936,3.42100875967592,-1.7150570747062563
1647770175529536500,2.31353662109375,-40.57253413171768,8.858560755625367,-2.759541285213828
1647770175539587600,2.323587646484375,-7.943585845345258,14.97405848262906,-10.82732926428914
1647770175549637600,2.3336376953125,12.77236209257841,21.24129400054216,-17.626081057888268
1647770175559688400,2.3436884765625,29.46983543615341,23.86759995074272,-21.320365783691404
1647770175569739500,2.353739501953125,45.95533074738979,21.92161435177326,-25.67091077070236
1647770175579790600,2.36379052734375,52.4528059305191,18.315175082683563,-25.55964585995674
1647770175589840400,2.37384033203125,43.89503604767322,15.102301416182517,-22.327326319229602
1647770175599891500,2.383891357421875,28.111614654314515,11.906465393722057,-17.685781785613298
1647770175609942500,2.393942626953125,13.236724986445903,9.205825794810057,-13.440353708112239
1647770175619993300,2.403993408203125,0.6656465137124061,5.4329146915376185,-8.674282631117105
1647770175630043400,2.41404345703125,-8.117581060770153,3.6858529975444076,-1.4710881593450904
1647770175640094500,2.424094482421875,-13.80007549328804,3.8860008913576602,3.6698756762117144
1647770175650145500,2.4341455078125,-15.18946532037258,4.412835146707296,6.986979532516003
1647770175660196600,2.444196533203125,-15.42798298459053,5.827203932225704,9.909791225522756
1647770175670246700,2.45424658203125,-16.100868217384814,6.094675888249277,10.130048425906896
1647770175680297700,2.464297607421875,-14.271001398932933,5.97120732949078,6.537886688494682
1647770175690348500,2.4743486328125,-8.81815801808834,7.01285105587542,2.208320192104578
1647770175700399600,2.484399658203125,-4.725225856387615,8.623608674934506,-2.7109961577534674
1647770175710449700,2.49444970703125,-2.423075872462988,7.05897392462492,-7.168045709240436
1647770175720500700,2.504500732421875,-0.4989391172081232,4.71639489967823,-5.967984860312939
1647770175730551800,2.5145517578125,-1.048793598139286,6.146788937324285,-4.4093096029296515
1647770175740602600,2.5246025390625,-2.341322887405753,5.51678013870418,-4.252358169025182
1647770175750652700,2.534652587890625,-2.415091303449869,3.4842683489263058,-2.7836715178638696
1647770175760703500,2.544703369140625,-1.7167980731546877,1.423158241173625,-0.16802198623418807
1647770175770754600,2.554754638671875,-1.2439210334420203,0.995508290414512,2.088519508203864
1647770175780805600,2.5648056640625,-0.9870955591171979,0.19317381701692937,1.852937312915921
1647770175790856700,2.574856689453125,-0.7218956396788359,-0.9614018765427171,1.3920879801273345
1647770175800906800,2.58490673828125,-0.0312619842261076,-1.4406890755586326,1.4266881688654423
1647770175810957600,2.59495751953125,1.5219856951504944,-1.222276480127871,1.4684189401358365
1647770175821008600,2.605008544921875,3.243742852017283,-1.4086699893549084,1.5924012936353682
1647770175831059700,2.615059814453125,3.8752205541461704,-1.2187323777802288,1.888756814315915
1647770175841109800,2.62510986328125,3.4362457840353247,-0.383849971999228,2.164720119830966
1647770175851160800,2.635160888671875,2.1385043130785224,0.1300572894990444,2.033140150809288
1647770175861211600,2.645211669921875,0.231027600723505,-0.07353533794060349,1.628897963644564
1647770175871262500,2.655262451171875,-1.529482188385725,-0.33583938980698586,1.337054367430508
1647770175881312500,2.6653125,-2.537814596799016,-0.43158465985953803,1.434557002544403
1647770175891363600,2.675363525390625,-3.183084092915058,-0.4285666272126138,1.8809283126473426
1647770175901414700,2.68541455078125,-3.226805745741725,-0.06036664428785443,1.61839615111351
1647770175911465700,2.6954658203125,-2.020743610572815,-0.2040598065599799,0.7619055785059928
1647770175921515800,2.705515869140625,-1.031975149807334,-0.4640796930119395,-0.12995908982157706
1647770175931566600,2.715566650390625,-1.0681108775496482,-0.47963747375831006,-1.2241197699069977
1647770175941617700,2.72561767578125,-1.5461545062452553,-0.5030255097389221,-2.4774618349060415
1647770175951668700,2.735668701171875,-1.9249311205029487,-0.32385596041604875,-3.507131338119507
1647770175961718500,2.745718505859375,-2.3010399768561123,0.15534925940483807,-3.6395924738898873
1647770175971769600,2.75576953125,-2.4424679706752297,0.3200258807338774,-2.64150059672296
1647770175981820700,2.765820556640625,-2.765173738142848,0.1756985852766782,-1.502021642269194
1647770175991871500,2.77587158203125,-3.094800829306245,0.15679653560370205,-1.232558220167458
1647770176001921500,2.785921630859375,-1.5501093813508748,-0.018974311191588638,-1.5360983916550874
1647770176011972600,2.79597265625,1.324704296684265,-0.8539588621728121,-0.9141162476241588
1647770176022023700,2.806023681640625,3.0897488066136836,-1.5382627300821243,0.5723650034248828
1647770176032074800,2.81607470703125,3.9022085143148897,-2.4001515084713696,1.0091814264580607
1647770176042124800,2.826124755859375,4.276386110344529,-2.935461331221461,0.9883853066667914
1647770176052176000,2.83617578125,3.9699218681037425,-2.5319366446763274,1.6788021044984458
1647770176062226400,2.846226318359375,3.1169477791845797,-1.7073869784697888,2.3817700486063957
1647770176072277500,2.856277587890625,1.9593045147478578,-1.1253447767697273,2.8780463763460515
1647770176082328600,2.86632861328125,0.4565355612426996,-0.6096425946787,3.073173227126896
1647770176092378600,2.876378662109375,-0.9969833314031362,-0.5100200448013842,2.928310874944925
1647770176102429700,2.8864296875,-1.2075702016443013,-0.5197354561951011,1.6191861324474215
1647770176112480800,2.896480712890625,-0.7186474515378475,0.0006235387258231639,0.3115048667564988
1647770176122531600,2.906531494140625,-0.6530488979458808,0.6300120865557343,-0.712107820636034
1647770176132581600,2.91658154296875,-0.9202981511294841,1.0404770937580614,-1.5150520964950323
1647770176142632700,2.9266328125,-1.0015133760482071,1.0500153219539672,-1.4566566061496733
1647770176152683800,2.936683837890625,-0.7080325340211391,0.8170417017292231,-0.6117296300858259
1647770176162734800,2.94673486328125,-0.24426292987167833,0.6317736894007772,-0.08010521785020827
1647770176172784600,2.95678466796875,0.03437748589813709,0.5519203274197876,-0.03560907351970673
1647770176182835500,2.96683544921875,0.33244448667168613,0.49358628493808204,0.09036854545027018
1647770176192886500,2.976886474609375,0.6523106467992067,0.30889826445467766,0.3748255385443568
1647770176202937600,2.9869375,0.4466998114049434,0.1610810810551047,0.29953327393382784
1647770176212987600,2.996987548828125,-0.2160837140917778,0.15003595542758702,-0.0010416180074214936
1647770176223038700,3.007038818359375,-0.7301169400572777,0.3427488769344985,-0.29249066194593903
1647770176233089800,3.01708984375,-0.6744102504044771,0.4319629185874015,-0.33204818083047866
1647770176243140600,3.027140625,-0.27025544926226136,0.30307554965056477,-0.2751736164420843
1647770176253190700,3.037190673828125,-0.04478782075345516,0.15100027041509748,-0.25361703367233274
1647770176263241700,3.04724169921875,0.06909165640473365,0.09111636814288794,-0.2018050133705139
1647770176273292500,3.05729248046875,0.19150164602100847,0.06607932284623384,-0.13572948991656303
1647770176283343600,3.067343505859375,0.22308219467699528,-0.03368322002366185,0.01293342359215021
1647770176293393700,3.0773935546875,0.17015198400020598,-0.16740224690064787,0.17785510572344063
1647770176303444700,3.08744482421875,0.14543138424158095,-0.24196305543147026,0.2919745291173458
1647770176313495600,3.09749560546875,0.021513912671804428,-0.15482318970412015,0.29267420181930065
1647770176323546600,3.107546630859375,-0.059116205835342404,-0.02637545429356396,0.18175854290276766
1647770176333596700,3.1175966796875,-0.0070662851244211195,0.0014783289242535828,0.000985211645066738
1647770176343647700,3.127647705078125,0.07316109780073166,-0.06012625966072082,-0.008241174122691155
1647770176353698800,3.13769873046875,0.12116612703502178,-0.15569558862447738,0.07131956158727407
1647770176363749600,3.14774951171875,0.14150515070855615,-0.2606394065897912,0.10403905114531517
1647770176373799700,3.157799560546875,0.08843407025635242,-0.3070931877940893,0.0773071115642786
1647770176383850500,3.1678505859375,-0.03698094639480114,-0.26779592728093266,-0.08021890735775232
1647770176393901600,3.177901611328125,-0.009992986226081848,-0.2516727677367627,-0.08319441603720187
1647770176403952600,3.18795263671875,0.18501286852359772,-0.3180767194274813,0.0533475593060255
1647770176414003700,3.198003662109375,0.23366087183654308,-0.39055005415976046,0.07142156065702437
1647770176424053800,3.2080537109375,0.1968126119107008,-0.3147047587763518,0.05247136099338531
1647770176434104600,3.2181044921875,0.15198387462496757,-0.22517229882404208,0.043614100798964495
1647770176444155600,3.22815576171875,0.07228139235675335,-0.161122070652619,0.045700551684200764
1647770176454206700,3.238206787109375,-0.020807225707173346,-0.11100019539482892,0.028856676650047302
1647770176464256800,3.2482568359375,-0.12257307122349738,-0.04195705430693924,0.030584231095016002
1647770176474307600,3.2583076171875,-0.19614274982511995,0.043725525284186,0.07125263383090495
1647770176484358700,3.268358642578125,-0.1776402939289808,0.11726466261707245,0.03809270702898502
1647770176494409500,3.278409423828125,-0.05211655620634555,0.14586078863479196,0.04995236390978098
1647770176504459500,3.28845947265625,0.02230243270099163,0.1502693988572806,-0.02364391043782234
1647770176514510600,3.298510498046875,-0.018597148442268372,0.14473324590958653,-0.1668833375930786
1647770176524561700,3.308561767578125,-0.06377659886181354,0.12160700267031788,-0.1349029759645462
1647770176534612700,3.31861279296875,0.05229249729514122,0.10148600566163658,-0.06000292554199695
1647770176544662800,3.328662841796875,0.0972971756696701,0.10415420195758342,0.08056056040227413
1647770176554713600,3.338713623046875,0.03969371248483657,0.13036204459927975,0.18098025200664997
1647770176564764700,3.3487646484375,-0.03868541222512722,0.12736074389144778,0.20853169127702711
1647770176574815700,3.358815673828125,-0.08075520619153977,0.1768158988688141,0.14634265386760234
1647770176584865500,3.368865478515625,-0.06767126821279526,0.20567769008539616,0.01204115092754364
1647770176594916600,3.37891650390625,-0.06880757876634597,0.20124489526972172,-0.09756693252176046
1647770176604967700,3.3889677734375,-0.06901917569041252,0.21217530847638844,-0.16410218244194982
1647770176615018500,3.3990185546875,-0.03609071955680847,0.19714462034404276,-0.1770122251585126
1647770176625068500,3.409068603515625,-0.0424900652050972,0.1193213028859347,-0.17058920637369154
1647770176635119600,3.41911962890625,-0.05353460631072521,0.06441555435247719,-0.09909253465384245
1647770176645170700,3.429170654296875,-0.026547230663895607,0.026441432201862333,-0.03618570436388254
1647770176655221800,3.4392216796875,0.02774783862531185,-0.030071313136816023,0.07320435242056846
1647770176665271800,3.449271728515625,0.08232698555290699,-0.034279651546850795,0.09615618894100189
1647770176675322600,3.459322509765625,0.022807459613680837,-0.050454541278257964,0.06957242565900087
1647770176685373400,3.46937353515625,-0.026722587230801582,-0.07673084604628384,0.15688742875754833
1647770176695424500,3.479424560546875,-0.018656185153126715,-0.049040802022814745,0.14178718252032996
1647770176705474600,3.489474609375,-0.07314648475348949,-0.0006334025327116251,-0.015984043334424495
1647770176715525400,3.499525390625,-0.14884265398979185,0.028948738847672937,-0.22003157493472097
1647770176725576400,3.509576416015625,-0.10082885692715644,0.023919293313100932,-0.2243637589201331
1647770176735627500,3.51962744140625,0.03244213392138481,-0.015185148041695356,-0.19840075788497924
1647770176745678300,3.52967822265625,0.08736907137334346,-0.06390548593848944,-0.09376607893407345
1647770176755728100,3.53972802734375,0.007342763978242873,-0.0685883099924773,-0.015577508360147475
1647770176765779200,3.549779296875,-0.0777951873421669,-0.07821911184266209,0.022730887246131894
1647770176775830300,3.559830322265625,-0.0879074160337448,-0.0989491075951606,0.0873436446711421
1647770176785881300,3.56988134765625,-0.039464579904079436,-0.11763349592946469,0.1670055026680231
1647770176795931400,3.579931396484375,0.03403846320211887,-0.10312010966949164,0.19571546432375908
1647770176805982500,3.589982421875,0.02691957110762596,-0.07643142470829188,0.08911912991106509
1647770176816033300,3.600033203125,-0.022248656687140465,-0.011360767447948455,-0.044751580396294594
1647770176826084400,3.61008447265625,0.05108312150537967,-0.008265431781113147,-0.07304448568373918
1647770176836134400,3.620134521484375,0.05532733494639396,-0.04796389350630343,-0.033708500595390795
1647770176846185200,3.630185302734375,-0.003927402576804161,0.006343158481642603,-0.015668693774938583
1647770176856236300,3.640236328125,-0.05337444731295109,0.05031462135091424,-0.044786359448730946
1647770176866287000,3.650287109375,-0.05845686514377594,0.07139533023722469,-0.04432867880910635
1647770176876337400,3.66033740234375,0.006145663148164749,0.12905848772004247,-0.10624006832093
1647770176886388200,3.67038818359375,0.04014320981800556,0.0586584521304816,-0.04107435318827629
1647770176896439300,3.680439208984375,0.06413374173641205,-0.02803016269803047,0.10631605616658925
1647770176906490400,3.690490478515625,0.028216040658950805,0.022067966357991096,0.02809387558400631
1647770176916540400,3.70054052734375,0.018984686455130576,0.03851597394235432,-0.010424947902560234
1647770176926591500,3.710591552734375,0.01573942092359066,0.05367817949987948,-0.038300796821713445
1647770176936642300,3.720642333984375,-0.03715104226469993,0.056999798203259705,-0.07851064213514328
1647770176946693400,3.730693359375,-0.08944529312551021,0.05171506273336708,-0.085594462916255
1647770176956743200,3.7407431640625,-0.0489122072070837,0.02813033513687551,0.007620411875844001
1647770176966794200,3.750794189453125,-0.004775543838739395,-0.023161095356941223,0.12416355528533458
1647770176976845300,3.76084521484375,0.03504091824293137,-0.032816447126492856,0.17958178338557482
1647770176986896400,3.770896484375,0.05703939956128597,-0.012269187529757619,0.06394084951281548
1647770176996947200,3.780947265625,0.018476736932992933,0.019544804555922744,-0.12986089014410973
1647770177006997200,3.790997314453125,-0.017532149559259413,0.002221913833171129,-0.088020813280344
1647770177017048300,3.80104833984375,-0.0580792640030384,0.0042607261843979356,-0.013638941513001919
1647770177027099400,3.811099365234375,-0.06004091946482658,0.0034224487293511626,0.02115735431909561
1647770177037150500,3.821150390625,-0.028922727623581886,0.003186228820681572,0.03218319072425365
1647770177047200300,3.8312001953125,-0.025422610548138616,0.002838511361554265,0.012093757897615432
1647770177057251300,3.841251220703125,0.013650339689850806,-0.008296995963156223,0.04879471830725669
1647770177067302100,3.85130224609375,0.016299977415800092,0.0056968234021216625,0.08671294555217027
1647770177077353200,3.861353271484375,0.03885258548557758,0.021566081250458953,0.09125321933031082
1647770177087403300,3.8714033203125,-0.02390402267873287,0.008012918324768543,0.007478080795705318
1647770177097454300,3.881454345703125,-0.09762158531844616,0.009143164463713764,-0.020653496450185774
1647770177107505400,3.89150537109375,-0.07990881849527358,0.04362447606250643,-0.02232026061862707
1647770177117556200,3.90155615234375,-0.02675532045662403,0.02731200449131429,-0.01635024629831314
1647770177127606300,3.911606201171875,-0.02493278120458126,0.006694456137344241,-0.05243395159244537
1647770177137657300,3.9216572265625,0.014954992547631264,0.003933759252354502,-0.05515577777177095
1647770177147708400,3.93170849609375,0.084078213134408,-0.03623509646356106,0.021764964823424816
1647770177157759500,3.941759521484375,0.0716688134163618,-0.019198621466755866,0.04989157363325357
1647770177167809300,3.951809326171875,-0.023007950621843336,0.025678704201057553,-0.001792436374723911
1647770177177860400,3.9618603515625,-0.06061433543860912,0.07255356036163867,-0.09888649068772792
1647770177187911200,3.9719111328125,-0.06527589750885963,0.07128456333912908,-0.1181958790525794
1647770177197962200,3.981962158203125,-0.020196400332450865,0.04100055729970336,-0.013678981262445449
1647770177208012300,3.99201220703125,0.028936171627044677,0.0021275135479867455,0.04436871855854988
1647770177218063400,4.0020634765625,0.02774257792830467,0.0037489042047411203,-0.001180149695277214
1647770177228114400,4.012114501953125,0.05524550188183784,-0.007789119506254792,-0.056389703480899334
1647770177238165500,4.02216552734375,0.056661798420548436,-0.05732296574302018,0.08997486995756626
1647770177248215300,4.03221533203125,-0.012336919003725052,-0.03618124738447368,0.10821399874240159
1647770177258266000,4.04226611328125,-0.06452946305572986,0.02521598206013441,-0.05302344191819429
1647770177268317200,4.052317138671875,-0.023303718698024747,0.021455460482835767,-0.13659224422574043
1647770177278368300,4.0623681640625,-0.025163082829117774,0.00011726970411837101,-0.0906698664844036
1647770177288419300,4.07241943359375,-0.06073007077276706,0.026333295652270317,0.04339432056844234
1647770177298469400,4.082469482421875,-0.04119242660999298,0.006665887629985809,0.058874213773012156
1647770177308520200,4.092520263671875,-0.010946341428160667,-0.004716945519298315,-0.0094721772223711
1647770177318571300,4.1025712890625,0.10447276638746261,-0.007724602902680635,-0.03661298986524343
1647770177328622300,4.112622314453125,0.08360416588187217,-0.05936506602987647,-0.02447568508684635
1647770177338672400,4.12267236328125,-0.05981003331840038,-0.01709507331624627,-0.012536825489997863
1647770177348723500,4.132723388671875,-0.12013152329027652,0.03344605026692152,-0.022814473876357075
1647770177358774500,4.1427744140625,-0.008473813834786414,0.011598448661342263,-0.010301613783836365
1647770177368825300,4.152825439453125,0.05766366893947124,-0.013879033879190683,0.05549100107550621
1647770177378875100,4.162875244140625,0.03158580935299396,0.01176701016128063,0.06319412279874086
1647770177388926200,4.17292626953125,-0.04105155683457851,0.021980799531191586,0.05520867700278759
1647770177398977300,4.182977294921875,-0.06521919888556003,0.024615385818481442,0.032030045989155764
1647770177409028400,4.1930283203125,-0.07747311578094959,0.05526983260549605,-0.042354163865745066
1647770177419078400,4.203078369140625,-0.03484861054122448,0.045199470294266936,-0.05361906972378492
1647770177429129500,4.21312939453125,0.06368892057836055,0.005935600594058632,0.006987959191203117
1647770177439180300,4.22318017578125,0.0845569365620613,-0.022990122704207895,0.044943011315166946
1647770177449231400,4.2332314453125,0.03137888860404491,-0.008922434385120867,0.029277824671566484
1647770177459281200,4.24328125,-0.016411621096730233,0.002856558474898338,-0.01892828009277582
1647770177469332200,4.253332275390625,-0.019731120908260343,0.019795272185653447,-0.03145838358104229
1647770177479383300,4.26338330078125,-0.03372866660058498,0.0569802167199552,-0.052421968893706795
1647770177489434400,4.273434326171875,-0.03698854517936706,0.034337738409638406,-0.06281622939705848
1647770177499484400,4.283484375,-0.012641454908251762,0.006029635553061962,-0.033923604650795455
1647770177509535200,4.29353515625,-0.037787002080678936,0.003970949457585812,0.028721359832584857
1647770177519586300,4.30358642578125,-0.05176233594119548,0.005440364423021674,-0.010723930849134922
1647770177529637400,4.313637451171875,0.018618191230297086,-0.013636238099262118,0.038730128149688244
1647770177539688400,4.3236884765625,0.04338789082765579,-0.017156082788482307,0.05121376214772463
1647770177549738500,4.333738525390625,-0.010611410385370255,-0.009413944229111074,-0.006154723237454891
1647770177559789300,4.343789306640625,-0.006034019467234611,-0.00031703005991876124,-0.029001930339634416
1647770177569840400,4.35384033203125,0.0195499191224575,-0.014503668583557009,-0.006512158372998237
1647770177579891200,4.36389111328125,0.006151508367061615,0.0014399696752429008,0.011881284190714358
1647770177589941200,4.373941162109375,-0.06390227106809615,0.022485168856754896,0.022111294043064115
1647770177599992300,4.383992431640625,-0.09840075299739837,0.03664879183098674,-0.010013152231276034
1647770177610043400,4.39404345703125,-0.06751403182446956,0.041219314616918565,-0.028413024535775183
1647770177620094200,4.40409423828125,-0.010714870759844779,0.02599916832707822,-0.019710078120231626
1647770177630144300,4.414144287109375,0.060570496296882624,-0.04662489998750388,0.07139175004065036
1647770177640195300,4.4241953125,0.10073182629346847,-0.07716792228929698,0.15788637666702268
1647770177650246400,4.434246337890625,0.05773439608812332,-0.006039499359950423,0.06760083332508803
1647770177660297500,4.44429736328125,0.015341946038603782,0.017630714562907813,-0.0710895522236824
1647770177670347300,4.45434716796875,-0.10231529609262943,-0.019739011953771115,-0.10680939264148473
1647770177680398300,4.4643984375,-0.15558277589976788,-0.00020458266139030456,-0.0379933383077383
1647770177690449200,4.47444921875,-0.0333446357190609,0.017621946734562514,-0.0026347324177622795
1647770177700500200,4.484500244140625,0.0483586649775505,0.01659421112202108,-0.05853986725211143
1647770177710549500,4.494549560546875,0.055172436645627015,0.0028093583323061467,-0.11591390559524296
1647770177720600600,4.5046005859375,0.0619441227376461,-0.002447393152117729,-0.06431815839260817
1647770177730651600,4.514651611328125,0.06088730716109275,-0.018490254001691936,0.052882864403724666
1647770177740702700,4.52470263671875,0.017839608073234557,-0.005028203425556421,0.10801175416857003
1647770177750753500,4.53475341796875,-0.023566169026494024,0.011540654059499502,0.0482324082493782
1647770177760803600,4.544803466796875,-0.023535773888230322,0.05408909838832914,-0.05980185001194477
1647770177770854400,4.5548544921875,-0.014329554125666617,0.05872961767055094,-0.1030158455774188
1647770177780905500,4.564905517578125,-0.019216157123446462,0.017072569223493338,-0.023334406097233293
1647770177790956500,4.57495654296875,-0.012735562932491302,0.0009275631736963987,0.06581921060532331
1647770177801006600,4.585006591796875,0.016563012266159055,0.03574468259811401,0.043779520493745804
1647770177811057700,4.5950576171875,0.0102870007365942,0.03228153653219342,-0.00017594108879566192
1647770177821108500,4.6051083984375,-0.005870937860012054,-0.002803001656755805,0.05759907927066087
1647770177831159600,4.61515966796875,-0.09679682493209839,0.044728491781651974,0.06240472598671913
1647770177841209300,4.625209228515625,-0.11814297982156276,0.08459719550721347,0.03725391811728477
1647770177851260400,4.635260498046875,-0.07684300118386744,0.09766878546103834,-0.0030702012255787847
1647770177861311500,4.6453115234375,-0.009865560454130172,0.04341894355304539,-0.08207154948711395
1647770177871362600,4.655362548828125,0.033416531911492346,-0.0217378576207906,-0.09931348392814397
1647770177881412600,4.66541259765625,0.058767246267199515,-0.023683365665376186,-0.05614478880912065
1647770177891463400,4.67546337890625,-0.013613514810800552,-0.0016053893700242042,-0.07923486475646495
1647770177901514500,4.685514404296875,-0.10870645843446254,0.07190605623833835,-0.13814064271152018
1647770177911565600,4.695565673828125,-0.12838731046020985,0.061607803455367684,-0.10960925249308347
1647770177921615600,4.70561572265625,-0.05391571458280086,-0.09404942592009902,0.020863339808583257
1647770177931666700,4.715666748046875,-0.01172434006333351,-0.17544059192761777,0.23074118499755858
1647770177941717500,4.725717529296875,0.03129354840815067,-0.12849544700980187,0.2794119846642017
1647770177951768600,4.7357685546875,0.08438684069216251,-0.05949782556407153,0.030205460910499093
1647770177961819400,4.7458193359375,0.057632104757428165,-0.03660860595107078,-0.14054390446096657
1647770177971869400,4.755869384765625,0.011706804406642913,-0.058295171776041384,-0.07458703895062208
1647770177981920500,4.76592041015625,-0.038080432069301604,-0.0728947750147432,-0.0030588030487298965
1647770177991971600,4.7759716796875,-0.03366495371460915,-0.020554273859411477,0.004474222804605961
1647770178002022400,4.7860224609375,-0.034683190846443175,0.008215235963836312,-0.016072013878822327
1647770178012072400,4.796072509765625,-0.019186931028962136,0.022837562490999698,-0.07835428252965211
1647770178022123500,4.80612353515625,0.02822363944351673,-0.03667801792547107,-0.0134065940618515
1647770178032174600,4.816174560546875,0.043157589203119275,-0.06435724829398096,0.10210895986557006
1647770178042225700,4.8262255859375,0.09062485829889774,-0.06044840428717434,0.16299188311249016
1647770178052275500,4.836275390625,0.13895254361629486,-0.06122114222534,0.07767769844233989
1647770178062326500,4.846326416015625,0.13733107989430426,-0.030600451577454803,0.014727905793488025
1647770178072377300,4.85637744140625,0.03181201932430267,0.01590206413939595,-0.041972178810834884
1647770178082428400,4.866428466796875,-0.0912058730572462,0.06994483916796744,-0.06673281831890344
1647770178092478500,4.876478515625,-0.09614449850320815,0.11527027392946183,-0.03308510800004005
1647770178102529500,4.886529541015625,-0.015690321084856986,0.13422441911585628,0.0062605216994881625
1647770178112580600,4.89658056640625,-0.011986790391802787,0.13539602017849683,-0.07974135297387838
1647770178122631400,4.90663134765625,-0.03407178094983101,0.12363587814942001,-0.07802724253237248
1647770178132681700,4.916681640625,-0.03122515934705734,0.07742131252847612,-0.08081745777279138
1647770178142732500,4.926732666015625,-0.030220950740575788,0.04447393249869346,-0.05971797112077474
1647770178152783600,4.93678369140625,-0.0020779753178358077,0.01378485278971493,0.03348112158030271
1647770178162834700,4.946834716796875,0.0007692308068275451,-0.0152833477191627,0.032327275370061394
1647770178172884500,4.956884521484375,0.03202770790159702,-0.006291939751058817,-0.05013765734881162
1647770178182935600,4.966935546875,0.03654781567454338,0.0008867927718907594,-0.08039864783883094
1647770178192986400,4.976986328125,0.06724865888655185,0.020374021921679378,-0.007860358111560344
1647770178203037400,4.987037353515625,0.10769465104341507,0.023125147260725495,0.06462970855981111
1647770178213088500,4.997088623046875,0.15587036066949367,-0.0027088936325162646,0.0021560089901089667
1647770178223138600,5.007138671875,0.17024901463389397,-0.036515301644429565,-0.06033639528006315
1647770178233189600,5.017189697265625,0.004075871136784553,0.027008710695803163,-0.0693289722919464
1647770178243240700,5.02724072265625,-0.20138065047860143,0.12241904970556497,-0.1768929826930165
1647770178253291500,5.03729150390625,-0.3177057672232389,0.14939334667511284,-0.2314934646695852
1647770178263341300,5.04734130859375,-0.1984896052122116,-0.013968831054493784,-0.2806660763785243
1647770178273392400,5.057392333984375,0.49245969206094736,-0.5676890475030988,-0.4713637125402689
1647770178283443500,5.067443359375,0.33371699082553385,0.10665113333985209,0.335275910705328
1647770178293494500,5.07749462890625,-0.22466975612938403,0.21004604136273264,0.3931611134409904
1647770178303544600,5.087544677734375,-0.40702480362057686,-0.1250441375121474,0.2907441105395555
1647770178313595600,5.097595703125,-0.12897826209068297,-0.2762934873174876,0.362579512694478
1647770178323646500,5.107646484375,0.11720073053538799,-0.13490348742119967,0.1280035718396306
1647770178333697500,5.117697509765625,0.0589595539689064,0.013381751881539821,-0.024794249516725538
1647770178343747600,5.12774755859375,-0.033932080218195916,0.11756123441085219,-0.037516368445754046
1647770178353798700,5.137798583984375,-0.07505728681087494,0.09972571799084544,-0.015259528452157974
1647770178363849700,5.147849609375,-0.07728314616680144,0.07730828060805797,-0.06889759513735771
1647770178373900300,5.157900390625,-0.09192541950345039,0.07743380668386816,-0.0710544809103012
1647770178383950600,5.16795068359375,-0.07498539061844349,0.07782821282893419,-0.06785422356426715
1647770178394001400,5.17800146484375,-0.11943360415399074,0.04453004660010337,-0.20838848341405392
1647770178404052500,5.188052490234375,-0.09545008649826049,-0.0034603695869445798,-0.11132394745647907
1647770178414103600,5.198103515625,0.02750467751920223,-0.058451092990115285,0.13688187482208014
1647770178424154600,5.208154541015625,0.054362873828411096,-0.09780497906133533,0.1891039372295141
1647770178434204700,5.21820458984375,0.10016367101669311,-0.08416910628825426,0.07689911528527736
1647770178444255500,5.22825537109375,0.168695355451107,-0.006406944432854652,-0.0522626866787672
1647770178454306600,5.238306640625,0.14606032979488373,0.06054360828995704,-0.12875614377260208
1647770178464357600,5.248357666015625,0.030924715095758438,0.03799392282962799,-0.08994768968969583
1647770178474407400,5.258407470703125,-0.08408815000653266,0.00884279327765107,-0.07399053436219692
1647770178484458500,5.26845849609375,-0.03645370765030384,0.03378565748482942,-0.00763005648702383
1647770178494509600,5.278509521484375,0.10309037211835384,0.01584858038648963,0.13045914829820393
1647770178504560400,5.288560302734375,0.12108254040479659,0.034822453186661,0.10743746141195297
1647770178514610400,5.2986103515625,0.0415226814776659,0.05653349586576223,-0.011954641687870025
1647770178524661500,5.30866162109375,-0.03057692457139492,-0.0277151053994894,-0.09301379926204681
1647770178534712600,5.318712646484375,-0.11205343077480792,-0.010151976180076598,0.06262918239235878
1647770178544763600,5.328763671875,-0.2069721868753433,0.047980917706340546,0.1578054203853011
1647770178554813700,5.338813720703125,-0.19461831673681734,0.03144216309860349,0.024293898779153823
1647770178564864500,5.348864501953125,-0.07203121698796748,0.08522636025622486,-0.027968203377723693
1647770178574915300,5.358915283203125,0.011312836652994155,0.09095160603523254,0.04146744415909052
1647770178584966400,5.36896630859375,0.05851005663573742,0.022611133323982357,-0.012808335907757281
1647770178595017500,5.379017578125,0.11074001008868217,-0.03408011038675904,-0.09095511316657066
1647770178605067500,5.389067626953125,0.03251344559192657,-0.02309058740399778,-0.05577712454050779
1647770178615118600,5.39911865234375,-0.010296937608718871,-0.05042597277089953,-0.003002688947319984
1647770178625169400,5.40916943359375,0.021027590459585188,-0.08663637318462133,0.03930968160331249
1647770178635220500,5.419220458984375,-0.028593641799688336,-0.050907180416584014,0.010227964025735855
1647770178645270500,5.4292705078125,-0.08072831818461418,0.014777444023638963,-0.04465162715315819
1647770178655321600,5.439321533203125,0.00988309611082077,0.05183861604779958,-0.07215981180369853
1647770178665372700,5.44937255859375,0.0747889912635088,0.011179127270728348,-0.0024967852517962454
1647770178675423700,5.459423828125,0.029648119288682936,-0.018847981398180128,0.07346358787864446
1647770178685473500,5.4694736328125,-0.005823591586947441,-0.004423953922092915,0.13656886335015297
1647770178695524400,5.4795244140625,0.016842413729429243,-0.011683715792000293,0.12556377747207878
1647770178705575400,5.489575439453125,0.012002572482824325,-0.011962094341963528,0.02635229261368513
1647770178715627500,5.49962744140625,0.016394085440039632,-0.004163987811654806,0.06538344953656196
1647770178725677600,5.509677490234375,-0.01218318974673748,0.01183349952623248,0.022195465195178985
1647770178735728400,5.519728271484375,-0.05423778614401817,0.029750264488905668,-0.11157353830337524
1647770178745779500,5.529779541015625,-0.09600538229346275,0.03490560142546892,-0.11744418390244245
1647770178755830500,5.53983056640625,-0.1109001690864563,0.004695172078907489,-0.002220014137029648
1647770178765881600,5.549881591796875,-0.019018004202842713,0.049750411596894265,0.00615910715162754
1647770178775931600,5.559931640625,0.13682196132838725,0.011057181391492485,0.011603928554058075
1647770178785982700,5.569982666015625,0.1510591609954834,-0.04597469245046377,0.12207418179064988
1647770178796033500,5.580033447265625,0.042430443972349165,-0.04136632187217474,0.12325754635632037
1647770178806084600,5.590084716796875,-0.032721535384655,0.06285057005807757,0.07710691281706095
1647770178816134400,5.600134521484375,-0.18363807303905486,0.12660568774044512,-0.16388824743032454
1647770178826185500,5.610185546875,-0.0486813210606575,-0.006674655458331108,-0.19226210899949073
1647770178836236500,5.620236572265625,-0.054961424243450165,-0.18702917678207157,0.18210896377563476
1647770178846287600,5.63028759765625,-0.0002671265035867691,-0.04428308610171079,0.22440321414768694
1647770178856337700,5.640337646484375,0.000727145230770111,0.18854118878021836,-0.02305705046057701
