time,seconds_elapsed,z,y,x
1647770037767221800,0.0122216796875,-0.9040233081549406,0.5022828746780753,0.7414519885420798
1647770037777271800,0.022271728515625,-1.155858134585619,0.21613109689746052,0.34156273588985203
1647770037787322600,0.032322509765625,-1.21214174734354,0.05082560308035463,0.2552498955711722
1647770037797372700,0.04237255859375,-0.7969400670081377,0.14005502496547997,0.40984073782414193
1647770037807423500,0.052423583984375,0.028439912542700767,0.15316592401638626,0.7787196429237723
1647770037817473500,0.0624736328125,0.39972120260894295,-0.021307138053327797,0.542336360386014
1647770037827524600,0.072524658203125,0.007027122157812118,-0.33182872939351943,-0.30939971117079257
1647770037837574700,0.08257470703125,-0.3904992007553577,-0.5628140618778765,-0.6333057943388819
1647770037847624400,0.09262451171875,-0.46883799345493316,-0.5285081068459898,-0.5627858586966991
1647770037857675500,0.102675537109375,-0.35634734030663967,-0.4065528021946549,-0.5287774983718991
1647770037867725600,0.1127255859375,-0.395095880895853,-0.3224117164244875,-0.4431079243928194
1647770037877776600,0.122776611328125,-0.1915092448055744,-0.44230026127174493,-0.2960366639897227
1647770037887826700,0.13282666015625,0.2268102752894163,-0.5012930599231272,0.6005708149507641
1647770037897876700,0.142876708984375,0.25257190853357314,-0.049868448485992846,1.8475126575186847
1647770037907927800,0.152927734375,0.6162193427205085,0.6912898543391376,1.931034698075056
1647770037917977600,0.1629775390625,1.2869839300990105,1.2918405763499439,1.5488357081532478
1647770037928028700,0.173028564453125,3.294000044092536,1.3387087105087936,1.7929250350236892
1647770037938078700,0.18307861328125,4.4308629708290095,0.7901461690843105,2.024867997026443
1647770037948129500,0.193129638671875,3.3267227485209703,-0.02965549887754023,1.0948843181848524
1647770037958179800,0.203179931640625,1.8373510367274284,-0.44986382839381694,-0.29256080457270145
1647770037968229600,0.213229736328125,0.38489363583326336,-0.3366156348764896,-1.2603735710710287
1647770037978280400,0.223280517578125,-0.3855851252287626,-0.10166581920795142,-1.1583557966202498
1647770037988330500,0.23333056640625,-0.4683218606263399,0.28989158536344767,-0.14225392324924468
1647770037998381600,0.243381591796875,-0.5627063637197017,0.8135164502125233,0.7886223205178976
1647770038008431600,0.253431640625,-0.41526714678704735,1.3421286019548773,0.7026531790703535
1647770038018482700,0.263482666015625,0.13084814761579036,1.4169991340219974,1.2633034870430826
1647770038028532700,0.27353271484375,0.49527241139411926,1.373642953506857,2.780361954924464
1647770038038582500,0.28358251953125,0.9559446340501307,1.7907161268025635,3.0155159879282114
1647770038048633600,0.293633544921875,1.6795967620074748,2.587356334081292,2.5887650318354365
1647770038058683600,0.30368359375,2.191059260702133,3.074868925128877,2.184590064688027
1647770038068734700,0.313734619140625,1.310453653013706,2.328623857091367,1.8904478361427783
1647770038078784800,0.32378466796875,-1.1340496228814125,1.513763810250163,2.204483390420675
1647770038088835800,0.3338359375,-2.701768895202875,1.8234258256189524,2.559252521625161
1647770038098885600,0.3438857421875,-2.8206624011307952,2.189534973744303,2.590021169376373
1647770038108935700,0.353935791015625,-2.273347083288431,2.118252675427496,2.1643144616395236
1647770038118986500,0.363986572265625,-1.4628122061699629,1.6355439775303005,1.6389496943205595
1647770038129036500,0.37403662109375,-0.7424123580068349,1.9795403703078627,2.3087620955407617
1647770038139087600,0.384087646484375,-0.06332008726596831,2.3685677449449893,2.448849780666828
1647770038149137700,0.3941376953125,0.2683908244341612,2.260249409045279,2.666528070473671
1647770038159188700,0.404188720703125,0.21521043838858603,1.726292462208867,2.178741046398878
1647770038169238500,0.414238525390625,0.20644494813084602,0.43424445365332065,0.7344955935329198
1647770038179288600,0.42428857421875,0.3344423824906349,-0.8150729589395225,-0.6103197632879018
1647770038189339600,0.434339599609375,0.24155367091298102,-1.8149940973602234,-2.026103091779351
1647770038199389700,0.4443896484375,0.6865285582214593,-7.614647320967912,-7.565190923881531
1647770038209440800,0.454440673828125,-0.7085036586642265,-10.850617785418033,-16.415677678644656
1647770038219490600,0.464490478515625,-0.1481657776415348,-4.966841486620902,-22.868881173849104
1647770038229541600,0.474541748046875,1.3052058154880999,1.5038424279555678,-15.35347397931218
1647770038239591700,0.484591796875,2.5584032113194466,0.55359092751313,-2.46529471951127
1647770038249641700,0.494641845703125,1.3179507307708263,-1.159043486623466,3.728788468429446
1647770038259692500,0.504692626953125,0.04757306755781173,0.4012397539457306,7.246468088570237
1647770038269742800,0.514742919921875,-1.5014046794146299,1.324371265337616,8.293949435067177
1647770038279793700,0.524793701171875,-3.069997227439284,0.6741681852769106,7.136112693884968
1647770038289843500,0.534843505859375,-4.042058883553743,-0.21372754288706927,4.227469811484218
1647770038299894500,0.54489453125,-4.141867749783397,-0.853831582531333,0.534589107260108
1647770038309944600,0.554944580078125,-3.4030022706031797,-1.4898174097344279,-2.0403443830996753
1647770038319994600,0.56499462890625,-2.198423651990294,-1.391438284046948,-2.7917238914161917
1647770038330045700,0.575045654296875,-1.2508698296666145,-0.6935051192358136,-1.6171908669769763
1647770038340095700,0.585095703125,-0.6146200908303261,0.009445179617591202,0.062382514154911035
1647770038350146600,0.595146484375,0.03638648763298988,0.2873994397541508,1.0202145693868399
1647770038360196600,0.605196533203125,0.4115618625283241,0.203896944148466,1.8699550832122562
1647770038370246700,0.61524658203125,0.3811573719143867,0.18354495139550417,2.101449132403731
1647770038380297700,0.625297607421875,-0.2575333303332329,0.23653858269732445,1.5533271743535995
1647770038390347800,0.63534765625,-0.5316606525927782,0.2006742192422971,1.1094161168843506
1647770038400398800,0.64539892578125,-2.174413830849528,0.07844477382469922,1.366262633997202
1647770038410448600,0.65544873046875,-3.49513285728991,0.42801016237363215,1.5244845262289046
1647770038420499500,0.66549951171875,-2.9917081191003323,0.6106516255907714,1.0025555785775184
1647770038430549500,0.675549560546875,-1.746272004920244,0.09778430159948766,0.42656010969579217
1647770038440599600,0.685599609375,-0.3342734556645155,-0.8123902226615697,-0.09636310968995093
1647770038450650600,0.695650634765625,1.0384627582609653,0.0933992914482951,-0.39589959849417206
1647770038460700700,0.70570068359375,2.2724831599354745,1.1235658574637024,-0.6582219166696072
1647770038470751500,0.71575146484375,2.9517200998440383,1.2198926537312567,-0.3552215511471033
1647770038480801500,0.725801513671875,3.779209326633811,1.2795254307866095,0.33890754520595073
1647770038490852600,0.7358525390625,4.587549908578396,1.3222310384385287,0.7323135733187198
1647770038500902700,0.745902587890625,4.8503737465351815,1.2147275260530412,0.8383136954039335
1647770038510953700,0.75595361328125,4.344088358217477,0.9439891886446624,0.6548579931944608
1647770038521003800,0.766003662109375,3.6561297671929,0.48401952476743604,-0.09959960739314555
1647770038531053600,0.776053466796875,2.973841038498282,0.145036649302952,-0.9248129982054233
1647770038541104600,0.786104736328125,2.5193790686592457,-0.11132157283630222,-1.6494535526782272
1647770038551154700,0.79615478515625,2.8014932980194684,0.03938541372064501,-1.4343980125904083
1647770038561205500,0.80620556640625,3.4770442428916692,0.3393389223605394,-0.37238603643774987
1647770038571255800,0.816255859375,3.4615023903667925,0.35984292733743783,0.18138532567620277
1647770038581305900,0.826305908203125,2.1552558336541057,0.48644295252207664,0.39563481007814405
1647770038591356700,0.836356689453125,0.5707637057080864,0.44842064384818076,0.3025836014151573
1647770038601406500,0.846406494140625,-0.9159589528813957,0.36233415963128207,0.04162906446158886
1647770038611457500,0.85645751953125,-2.0647566475614902,0.2631209394735284,-0.06158113464415073
1647770038621507600,0.866507568359375,-2.562382051822543,0.09739011465013027,-0.16448504427969454
1647770038631558700,0.87655859375,-2.452846741348505,-0.10679200311526656,-0.29348376463651654
1647770038641608700,0.886608642578125,-1.8261872531563041,-0.29081863708049055,-0.2394944002956152
1647770038651658500,0.896658447265625,-0.9871984349697828,-0.39025150960460303,-0.09153963505625724
1647770038661709600,0.90670947265625,-0.6052677405953407,-0.3017303455866873,0.09616671033501624
1647770038671759600,0.916759521484375,-0.4988239663958549,-0.20930837473794817,0.17255904514193535
1647770038681810700,0.926810791015625,-0.3198117995917797,-0.20076251858025787,0.11995207507014274
1647770038691860700,0.93686083984375,0.05148234995603561,-0.20729645039364694,-0.09096446551680565
1647770038701911800,0.946911865234375,0.4206599457412958,-0.2159542424932122,-0.1000987890869379
1647770038711961900,0.9569619140625,0.6227776783227921,-0.2000483789615333,0.06882628346681595
1647770038722011600,0.96701171875,0.5650403596252203,-0.21435133734121917,-0.03633563422858715
1647770038732062500,0.9770625,0.415881479293108,-0.2625486742772162,-0.07461538826227188
1647770038742112500,0.987112548828125,0.07260346391797065,-0.24374781995639203,0.08423837213218212
1647770038752163600,0.99716357421875,-0.17243512650132178,-0.19559125342220066,0.20317513267993925
1647770038762213600,1.007213623046875,-0.2709773337960243,-0.33480916997641325,0.2376771217405796
1647770038772264700,1.0172646484375,-0.3832862006366253,-0.3508217087529599,0.1883937431335449
1647770038782314500,1.027314453125,-0.4571358652234077,-0.2991055500410497,0.1788216126680374
1647770038792364500,1.037364501953125,-0.3847790695428848,-0.31982991977035996,0.10073007272779941
1647770038802415600,1.04741552734375,-0.32035423590540885,-0.3137311645038426,0.043992870983481404
1647770038812465700,1.057465576171875,-0.26783786672651766,-0.2081589124418795,0.08291033839881419
1647770038822516700,1.067516845703125,-0.011223404803872107,-0.2360211712270975,-0.0729454092234373
1647770038832566800,1.07756689453125,0.33372985030710695,-0.27446985208690167,-0.21583178515732288
1647770038842617900,1.087617919921875,0.5730781201303005,-0.20469649702832102,-0.14562427646517753
1647770038852667600,1.097667724609375,0.6848071412563324,-0.13550868677273392,-0.09876257204711436
1647770038862717700,1.1077177734375,0.6712228525400161,-0.08494973527193068,-0.01864858636856079
1647770038872768800,1.117768798828125,0.48714054286479946,-0.0955959247097373,-0.12104279291629791
1647770038882818800,1.12781884765625,0.3171580702126026,-0.15901165436990558,-0.24321488212347028
1647770038892869600,1.13786962890625,0.1850654754936695,-0.15579663784615694,-0.17679332171082496
1647770038902919400,1.14791943359375,-0.07268062080740928,-0.16261786216832697,-0.03972878379821777
1647770038912970500,1.157970458984375,-0.35348435209095475,-0.20447644280316307,0.012996844217181206
1647770038923020500,1.1680205078125,-0.3988964422225952,-0.27295177567414936,0.021707389417290685
1647770038933070600,1.178070556640625,-0.2615349671900272,-0.3929829803951084,-0.07825929772257804
1647770038943121700,1.18812158203125,-0.14625146845281123,-0.37000622862912713,-0.183074593937397
1647770038953171700,1.198171630859375,0.07361936296224594,-0.37228557173795995,-0.17061434081494808
1647770038963222800,1.208222900390625,0.4463654648840427,-0.392207904369384,-0.05999181962609291
1647770038973272600,1.2182724609375,0.650491614678502,-0.40317024708427485,0.04906184481084346
1647770038983323600,1.22832373046875,0.6244347978800535,-0.3983393928617239,0.07360182730555534
1647770038993373700,1.238373779296875,0.4995335759699344,-0.4740306667272001,0.0032528643161058423
1647770039003423700,1.248423828125,0.21430033780634403,-0.5151934288512915,-0.1735807894051075
1647770039013474800,1.258474853515625,-0.12769932819604873,-0.5318010109115392,-0.2921522237718105
1647770039023524600,1.268524658203125,-0.26007366246581076,-0.5244415880594402,-0.3386848423659801
1647770039033575400,1.278575439453125,-0.07076923422813415,-0.5566880532782524,-0.34761692136228084
1647770039043625500,1.28862548828125,0.23014555719196794,-0.5802702966567128,-0.3056915043026209
1647770039053676500,1.298676513671875,0.39571547409892077,-0.5242054412160069,-0.17349135755598544
1647770039063726600,1.3087265625,0.4240460810482502,-0.4957599757153541,0.03175298261344433
1647770039073776600,1.318776611328125,0.39095512782931324,-0.5095140680406243,0.13550678707659244
1647770039083827700,1.32882763671875,0.24728081638813018,-0.5184710622824729,0.17705343395173548
1647770039093877500,1.33887744140625,0.01825286504924297,-0.5584943720478565,0.16593290500044822
1647770039103928600,1.348928466796875,-0.10834873103797435,-0.6119712568219751,0.011389409020543098
1647770039113978600,1.358978515625,-0.054716509571671484,-0.7004587377659977,-0.12008417701721191
1647770039124029700,1.36902978515625,0.018882395124435424,-0.6836821558143943,-0.14399229134917257
1647770039134079700,1.379079833984375,0.10612754785716533,-0.6285720438152551,-0.14746902754902838
1647770039144129800,1.3891298828125,0.27793489784896375,-0.5872866416921839,-0.007000234150886535
1647770039154180600,1.3991806640625,0.4632195690512657,-0.5236030914086848,0.08938274928331374
1647770039164230700,1.409230712890625,0.6502759261012077,-0.5647033462231978,0.03391454456150531
1647770039174281500,1.419281494140625,0.7216355274379253,-0.6214219528649002,-0.08486147246658801
1647770039184331800,1.429331787109375,0.6264443841367959,-0.6258554783329368,-0.10862170276045799
1647770039194382600,1.439382568359375,0.43806525405049324,-0.588469166007638,-0.041032267612218856
1647770039204432600,1.4494326171875,0.2829460040092468,-0.6400593602523207,-0.026088965502381323
1647770039214482400,1.459482421875,0.06193067873418331,-0.694744597902894,-0.09969488446116447
1647770039224533500,1.469533447265625,-0.01494505567550659,-0.7081705542523413,-0.17270108396112918
1647770039234583600,1.47958349609375,0.15661913321018217,-0.7603424939077347,-0.17970774785280227
1647770039244634600,1.489634521484375,0.3856336405456066,-0.797912346106395,-0.17577099292576312
1647770039254684700,1.4996845703125,0.5583633660793305,-0.8309314031329006,-0.1775023467630148
1647770039264735700,1.50973583984375,0.6901251214087009,-0.8433969169523566,-0.07009352692365646
1647770039274785800,1.519785888671875,0.7279401805400848,-0.8337534017510712,0.02516717448234558
1647770039284835600,1.529835693359375,0.5790273839235306,-0.8683673998188227,0.006579962912201881
1647770039294886700,1.53988671875,0.41962534199655055,-1.0032168189652264,-0.13405951087772847
1647770039304936700,1.549936767578125,0.37488077586293217,-1.133851616091281,-0.42024318163394925
1647770039314987800,1.55998779296875,0.34659576162099837,-1.2308978857398032,-0.5930564937978983
1647770039325037800,1.570037841796875,0.2899614357292652,-1.2701701579421758,-0.5458861618220806
1647770039335088600,1.580088623046875,0.3771463827073574,-1.3163700374506413,-0.35292204203307626
1647770039345138400,1.590138427734375,0.48706280145347114,-1.2901473625659943,-0.061194765675067896
1647770039355188700,1.600188720703125,0.6085428167432546,-1.2470640076428652,0.24511048661172388
1647770039365239600,1.610239501953125,0.8066291018515824,-1.3129197508662938,0.4408095843225717
1647770039375289600,1.62028955078125,0.8822603891581297,-1.402055539651215,0.45034255182147026
1647770039385340700,1.630340576171875,0.8135954337328672,-1.5604282385304569,0.3034580461621284
1647770039395390700,1.640390625,0.7279606388062239,-1.614581415130943,0.2161965268164873
1647770039405441500,1.650441650390625,0.5663906051903963,-1.6310697547256945,0.09403963517844677
1647770039415491600,1.66049169921875,0.5865817448258399,-1.7921518586941063,-0.14963526567220686
1647770039425541600,1.670541748046875,0.7159341009259224,-1.9803085782013832,-0.41838732463419437
1647770039435592700,1.6805927734375,0.5787918216019868,-2.060557734566927,-0.484299181959033
1647770039445642800,1.690642822265625,0.46751872754991053,-2.046539730608463,-0.42424248040318485
1647770039455693800,1.70069384765625,0.6682511432528495,-2.0956078590296205,-0.24081015906929967
1647770039465743600,1.71074365234375,0.8194587728083134,-2.1138938956961035,-0.10171733019948005
1647770039475794400,1.72079443359375,0.8724860141187906,-2.190709132090211,0.012899813583493232
1647770039485844700,1.7308447265625,1.0775602584183215,-2.3725138522222635,0.09036123892664909
1647770039495894800,1.740894775390625,1.2470692683398723,-2.4751415752649306,0.3168231391698122
1647770039505945600,1.750945556640625,1.1546312231391667,-2.4358079282641407,0.7317068395972252
1647770039515995600,1.76099560546875,0.9449217202544212,-2.5519611955732104,1.1867618068933485
1647770039526046700,1.771046630859375,0.5543389328688383,-2.6503306766495105,1.4645698634922504
1647770039536096500,1.781096435546875,0.24687165106534956,-2.6537261643067,1.6083271770417689
1647770039546147600,1.791147705078125,0.7152414424866438,-2.8150460225537417,1.513506620618701
1647770039556197600,1.80119775390625,1.4085732509821653,-2.872524982576072,1.271868778553605
1647770039566247700,1.81124755859375,1.690967466327548,-2.844821859875321,1.146225213843584
1647770039576298800,1.821298828125,1.606271998077631,-2.774766326874494,0.9414783018022775
1647770039586348300,1.831348388671875,1.6852479196369647,-2.768351199135184,0.7522323257535696
1647770039596399400,1.8413994140625,2.073469238588214,-2.785190690255165,1.0376368288308382
1647770039606449400,1.851449462890625,2.2004507739037273,-2.727936478899419,1.4611375509560107
1647770039616500500,1.86150048828125,1.8475936138004063,-2.582983233563602,1.617812798267603
1647770039626550300,1.87155029296875,1.4089865079581736,-2.3133378790237007,1.7696961351275442
1647770039636600300,1.881600341796875,1.05352296474874,-1.7565850168809294,2.201470180079341
1647770039646651400,1.8916513671875,1.0004583140373229,-1.238818741866946,2.6112030736148357
1647770039656701400,1.901701416015625,1.425133340638876,-0.7664309469759464,2.6184745259225366
1647770039666752300,1.911752197265625,1.5189350754082203,-0.635050446049124,2.3555074801027773
1647770039676802300,1.92180224609375,1.266221712577343,-0.7743516569726169,1.705124586495757
1647770039686853400,1.931853271484375,1.3882733902752398,-0.90521807089746,0.9794891757667064
1647770039696903200,1.941903076171875,1.9422832373201846,-1.0969346748434006,0.4098316777348518
1647770039706953200,1.951953125,2.2418214796900746,-1.0523583048835397,0.3580044598639011
1647770039717004300,1.96200439453125,1.8670242904573677,-0.9516866843447088,0.5828688617825508
1647770039727054300,1.972054443359375,1.2459475708335637,-0.7019944229006767,0.7509697584718465
1647770039737105400,1.98210546875,0.6639303574442863,-0.2576939277224243,0.928150033673644
1647770039747155200,1.9921552734375,0.44778176142275333,0.21890315542668104,1.048355206722021
1647770039757206300,2.002206298828125,1.390154966238141,0.45946416204050183,0.7284659579798579
1647770039767256300,2.01225634765625,3.00739668661952,0.5339461697140708,0.17636866655796765
1647770039777306400,2.022306396484375,4.2789509923964735,0.42725452170073985,-0.20529285548627374
1647770039787357400,2.032357421875,5.055311212712526,0.43114962944313884,-0.6855190889179706
1647770039797407500,2.042407470703125,5.309916088378429,0.1852018152244389,-1.2661141605496407
1647770039807458300,2.052458251953125,4.988997788849472,-0.21311536580547688,-1.7256664392650127
1647770039817508000,2.062508056640625,4.702355268409848,-0.42901364032775163,-1.7124021762832997
1647770039827559200,2.07255908203125,5.041799989232421,-0.7076888351500034,-0.9052268387258052
1647770039837609200,2.082609130859375,5.959475975164771,-0.8160263141416013,0.4587622973814606
1647770039847659300,2.0926591796875,6.753679310685396,-0.8683211495243013,1.8254785203650592
1647770039857710300,2.10271044921875,6.586222557118535,-0.560298133534193,3.176259799852967
1647770039867760400,2.112760498046875,5.634623258796334,-0.09858575417548418,3.9698531867817044
1647770039877811200,2.122811279296875,4.665940723726153,-0.011491115829348563,4.3109234629794955
1647770039887861200,2.132861328125,3.4683296060383317,0.33676118082702156,4.643123327240348
1647770039897912300,2.142912353515625,2.6068618295401333,0.7421022691443562,4.676187976974249
1647770039907962400,2.15296240234375,2.599849320429563,0.6521954959869385,3.956312152685225
1647770039918012400,2.163012451171875,3.2646289881795645,0.2949894930243492,3.362907868362963
1647770039928063500,2.1730634765625,4.022213196355104,0.2578933958172798,3.2365447572067376
1647770039938113300,2.18311328125,4.967073541811108,0.021459844397008418,3.1942522604003547
1647770039948164400,2.193164306640625,5.828664067906141,-0.2196820308446884,2.7080086663752794
1647770039958214400,2.20321435546875,6.221420692199469,-0.35751638408601283,2.5051763557836413
1647770039968265200,2.21326513671875,6.678749449646473,0.18178893804103136,3.471395715610683
1647770039978315300,2.223315185546875,8.029115426331758,0.5838546579495072,4.492607479341328
1647770039988365300,2.233365234375,8.658054549893736,0.6650976476579904,5.431760845327377
1647770039998416400,2.24341650390625,8.165932711485027,0.902636822232604,5.1513452365785835
1647770040008466200,2.253466064453125,7.613211735206842,0.9269207841396331,3.4710999475345012
1647770040018517200,2.263517333984375,7.201593758577108,0.9225526520580053,1.1097370194017886
1647770040028567300,2.2735673828125,5.304555438128113,1.2641536741316317,-1.0959930100791155
1647770040038618400,2.283618408203125,3.500588200086355,1.9299983407646417,-3.4034707648977633
1647770040048668400,2.29366845703125,5.880723340967298,3.1549215360090135,-6.433931808501482
1647770040058718200,2.30371826171875,8.969917436307668,3.9748987797334787,-6.816318429949879
1647770040068769300,2.313769287109375,9.386077148020266,5.312471033558249,-6.392608448988199
1647770040078819300,2.3238193359375,7.312061965987086,5.759564228194952,-5.824029978364706
1647770040088870400,2.333870361328125,3.056649670088291,5.042819979929924,-5.577364079004526
1647770040098920400,2.34392041015625,-0.30456805323064323,3.3219255773723124,-5.095656667104363
1647770040108971300,2.35397119140625,-1.0260650489807128,0.317381065313518,-9.884135390740633
1647770040119021300,2.364021240234375,-5.465134707140923,0.3908142580538988,-9.24720468390286
1647770040129071400,2.3740712890625,-15.453014549994467,-5.943676933008432,-1.1261728981569408
1647770040139122200,2.3841220703125,-23.02923890906572,-20.930786620390414,-10.047689291650057
1647770040149172200,2.394172119140625,-56.476939865803715,-4.0613945754036305,8.41518512020707
1647770040159223300,2.404223388671875,-70.65701070148944,31.86250798704624,52.37180522513389
1647770040169273300,2.4142734375,-68.9574455026865,27.133475724112987,49.22844290175438
1647770040179324400,2.424324462890625,-52.66043278191089,25.32191379315853,41.382293348288535
1647770040189374200,2.434374267578125,-31.909751384258268,27.717731071817873,26.44895149145126
1647770040199424300,2.44442431640625,-20.281209782469272,23.037546134161946,-10.281415045416354
1647770040209475300,2.454475341796875,12.484613656723498,7.653534977766871,-33.550901803493495
1647770040219525400,2.464525390625,44.73332928481102,-11.819500226974487,-37.16304133005142
1647770040229576400,2.474576416015625,63.4607466135025,-34.31787401773929,-23.79652910321951
1647770040239626500,2.48462646484375,66.18538083598614,-37.874717773532865,-10.064371546381711
1647770040249676300,2.49467626953125,55.41087013869285,-37.25135323523283,2.3065958574175833
1647770040259727400,2.504727294921875,35.908334698700905,-22.089528785979745,-2.004626588508487
1647770040269777400,2.51477734375,20.377216333806512,-7.649897498047351,-1.8034388302534818
1647770040279828200,2.524828125,10.42801547343731,0.0342114816814661,1.5109937610149382
1647770040289878300,2.534878173828125,0.9082435561984777,7.481672098195553,0.6159516316950321
1647770040299929300,2.544929443359375,-5.792960886362195,9.56568961880505,1.757361554211378
1647770040309979100,2.554979248046875,-3.750793964010477,15.19962898699045,5.411472675058246
1647770040320030200,2.5650302734375,0.30470833848416806,17.59206188390851,6.524121197992563
1647770040330080300,2.575080322265625,-0.6838391730070114,19.00569767897725,10.695130286586284
1647770040340130300,2.58513037109375,-2.8821032505214212,17.40981029679179,13.195892625319956
1647770040350181400,2.595181396484375,-2.8373019857645034,13.642832090699672,10.874700087273121
1647770040360231400,2.6052314453125,-2.3572172066301107,10.38843983437419,8.425178106433153
1647770040370282500,2.615282470703125,0.7076496721833944,5.282478630876541,4.616667866513133
1647770040380332300,2.625332275390625,3.034892011788487,3.258289848285913,1.6491572000801562
1647770040390383400,2.63538330078125,1.7682371684908866,2.0810371896244586,2.2926035724222658
1647770040400433400,2.645433349609375,2.1664327689677476,0.24584040832147,0.5542974318146705
1647770040410483500,2.6554833984375,5.208462962073088,-0.5213485174149275,-2.1878806306660175
1647770040420534300,2.6655341796875,3.5991543727785347,-0.6138888539463281,-3.074747052314877
1647770040430584300,2.675584228515625,1.263341773226857,-0.12764482152983544,-3.1626234886884688
1647770040440635100,2.68563525390625,-0.7995990570843219,-0.40500703405737876,-4.6262534409821034
1647770040450685200,2.695685302734375,-4.069414507991075,-1.3423779005408287,-5.215011945325136
1647770040460735200,2.7057353515625,-5.144178413689136,-1.4073295345313845,-5.588764009419084
1647770040470786300,2.715786376953125,-2.7497096270292998,-1.165953412142396,-5.109125805008411
1647770040480836400,2.72583642578125,-0.45868192562162874,-0.47880730654448267,-3.109541886842251
1647770040490887400,2.735887451171875,0.29145313559174535,0.30550474955886603,-2.6031173823148013
1647770040500937200,2.745937255859375,0.49189036774039263,0.6584833440847695,-2.1393062771111726
1647770040510988300,2.75598828125,-0.2840864062160253,1.3503779593840242,-0.8994231208831072
1647770040521038300,2.766038330078125,-0.6990998705029488,1.138971151062101,0.03193418439924717
1647770040531089400,2.77608935546875,-1.0889444067418574,0.8735299702137708,0.2272071656525135
1647770040541139500,2.786139404296875,-2.670323371103406,1.0818677463538944,0.5464142773494124
1647770040551189500,2.796189453125,-3.2457343180954457,1.36932012187168,0.4143488628983497
1647770040561240300,2.806240234375,-2.2445769158780573,1.5827750948950647,0.1419379891678691
1647770040571290400,2.816290283203125,-0.565697362229228,1.8927561130851507,-0.15852087517827748
1647770040581341400,2.826341552734375,0.8421405602157116,1.8760874484874308,-0.07699439235329628
1647770040591391500,2.8363916015625,1.4213479768812656,1.5328161551140247,0.4833259530127048
1647770040601441500,2.846441650390625,1.6901497202038764,1.4765014165654777,1.0212205315589904
1647770040611492600,2.85649267578125,2.066841929402947,1.6021118096582592,1.4564748198419808
1647770040621542400,2.86654248046875,1.5497516539543865,1.6094615878991783,1.9236086397275327
1647770040631593500,2.876593505859375,0.6907838775783777,1.1259203847005963,1.7378642420589923
1647770040641643500,2.8866435546875,0.5187129082143307,0.6630480216518044,0.8890209693342447
1647770040651694600,2.896694580078125,0.5889250930815935,0.04106310114189982,0.4049801460504532
1647770040661744600,2.90674462890625,0.3158300364792347,-0.5816118474587798,0.007006663891673088
1647770040671795700,2.916795654296875,-0.12817162188291548,-0.6048650050133466,-0.2980047491922974
1647770040681845500,2.926845458984375,-0.45480771453678603,-0.07947364194840192,-0.31906361157298085
1647770040691895600,2.9368955078125,-0.46738136490583415,0.3964810516439378,-0.2603390354037285
1647770040701946600,2.946946533203125,-0.4142500786989927,0.5882157757684588,-0.3964923036903143
1647770040711996700,2.95699658203125,-0.320652342069149,1.1443867463700472,-0.7765569119319319
1647770040722047500,2.967047607421875,-0.19948446146845816,1.6059183623343705,-0.4735203060522675
1647770040732097500,2.97709765625,-0.09453530974090099,1.6908647366054355,-0.1562634516403079
1647770040742147300,2.987147216796875,0.12495324435830116,2.118835151490569,-0.3204389915794134
1647770040752198400,2.997198486328125,0.8243693412035703,2.2937631177209314,-0.4766045358031988
1647770040762248400,3.00724853515625,1.3371668878942726,1.572829308811575,-0.400329105374217
1647770040772299500,3.017299560546875,1.8121371004939077,0.2777767846778035,-0.3550394725784659
1647770040782349600,3.027349609375,2.587063488614559,-0.8749176251798868,0.26213351760506626
1647770040792400600,3.037400634765625,2.4017700495839116,-1.9029378998816011,1.4113853857934475
1647770040802450400,3.047450439453125,0.9501602054297923,-2.4218770180672404,2.095363967271149
1647770040812501500,3.05750146484375,-0.981765304005146,-2.3620189078234133,2.340054767166078
1647770040822551600,3.067551513671875,-2.4188819279044864,-2.0419092943288386,1.920493722577393
1647770040832601600,3.0776015625,-2.5287159290641545,-1.7656977131411433,0.9889201441958546
1647770040842652700,3.087652587890625,-1.7017513106703757,-1.5600170273810625,0.38361499419957396
1647770040852702700,3.09770263671875,-0.7589110728651285,-1.557145855858922,-0.16687866141796112
1647770040862753500,3.10775341796875,-0.3816162215977907,-1.3774796090602874,-0.3462915179774165
1647770040872803300,3.11780322265625,-0.4321533996582031,-1.0181303835239262,-0.4493517872184515
1647770040882854400,3.1278544921875,-0.9238649037003517,-0.8659329392135143,-0.3375673826433718
1647770040892904400,3.137904541015625,-1.2338292630165815,-0.7496282076697797,-0.316045725056529
1647770040902954500,3.14795458984375,-0.8235778985649347,-0.7259379738721996,-0.681634502569586
1647770040913005600,3.158005615234375,-0.12024842766821384,-0.900223988937214,-1.0224762307085096
1647770040923055400,3.168055419921875,0.6078624332636594,-1.1057833864051847,-1.003619408416748
1647770040933106400,3.1781064453125,1.2017425184041262,-1.2399249495431781,-0.768240626746416
1647770040943156500,3.188156494140625,1.4973521891534327,-1.0500110111050307,-0.5422760085009038
1647770040953206500,3.19820654296875,1.0089180993467568,-0.8930972788624465,-0.29820144080817695
1647770040963257600,3.208257568359375,-0.052554363101720805,-0.530850651384145,-0.2938007216311991
1647770040973307600,3.2183076171875,-0.44124037695527074,0.08606807177737355,-0.24927096729204057
1647770040983358700,3.228358642578125,-0.11078326470851897,0.6139088738210499,-0.09148089060634373
1647770040993408500,3.238408447265625,0.318638079637289,0.8391068916082381,0.21711846396699547
1647770041003459300,3.248459228515625,0.4728793778002262,0.9401415002405643,0.5976917523831129
1647770041013509600,3.258509521484375,0.18554712153077124,0.8704897257350385,0.6656272244900464
1647770041023560400,3.268560546875,-0.047944238957762716,0.813756177252531,0.40862610133737326
1647770041033610500,3.278610595703125,0.09549801729321479,0.8778509021528065,0.08027268337160348
1647770041043660300,3.288660400390625,0.03479483452737331,0.8015168734043836,-0.18571853257492182
1647770041053711400,3.29871142578125,-0.11096271292865276,0.692239921605587,-0.43846857415437696
1647770041063761400,3.308761474609375,-0.058387307038903234,0.5099734291806817,-0.5016264565959573
1647770041073812500,3.3188125,-0.019055998125672338,0.4399697724975645,-0.41972734106630083
1647770041083862500,3.328862548828125,0.09383388347327709,0.3868332986589521,-0.399940252187103
1647770041093913600,3.33891357421875,-0.011142156261205672,0.35123650009892876,-0.33429479071348905
1647770041103963600,3.348963623046875,-0.09786591546833515,0.33221082404628394,-0.3546773612678051
1647770041114013400,3.359013427734375,-0.14916531007289885,0.29656134545095264,-0.5289340041078627
1647770041124064500,3.369064453125,-0.19788930123150347,0.3085054657448083,-0.617488632003963
1647770041134114600,3.379114501953125,-0.3355050432860851,0.2588967276409268,-0.5509796855688095
1647770041144165600,3.38916552734375,-0.25044834050834175,0.1858566258713603,-0.3817683434195816
1647770041154215700,3.399215576171875,-0.06646890668570996,0.2880178273808211,-0.23620120396912098
1647770041164266500,3.4092666015625,-0.00481236871778965,0.22455475144758819,-0.12975932946577667
1647770041174316300,3.41931640625,-0.010301029261946678,0.09899513869397342,-0.12416764693856239
1647770041184366600,3.42936669921875,0.0730628981232643,0.07658201216012239,-0.12837781197950243
1647770041194417400,3.43941748046875,0.15970248617827892,0.1556438584372401,-0.12096256728693842
1647770041204467500,3.449467529296875,0.1156008941233158,0.2513845253799111,-0.09903832024857401
1647770041214518500,3.4595185546875,0.021966332614421845,0.29362426908574996,-0.11404621202722191
1647770041224568600,3.469568603515625,0.01349251877963543,0.2959225360907614,-0.08874825077205896
1647770041234619600,3.47961962890625,-0.030618425625562665,0.13396269943974912,-0.06399126452580094
1647770041244669400,3.48966943359375,-0.12266425663828849,-0.057718687062337994,-0.046610944527387614
1647770041254719500,3.499719482421875,-0.2646463772088289,-0.2825881304822862,0.09574190905168652
1647770041264770600,3.5097705078125,-0.419952674254775,-0.507365584769845,0.16976064659506082
1647770041274820600,3.519820556640625,-0.3710585872262716,-0.5643396640099585,0.12974369350522755
1647770041284871700,3.52987158203125,-0.22264731039106844,-0.6007914719641209,0.1274317633010447
1647770041294921500,3.53992138671875,-0.13802023120224474,-0.6110249158825725,0.12906447906941174
1647770041304972300,3.54997216796875,-0.02651391291618347,-0.5276498825814575,0.15368424880206585
1647770041315022600,3.560022705078125,0.03236906868517399,-0.41210429884195326,0.24444676200598478
1647770041325072600,3.57007275390625,0.01208732815682888,-0.3065120269052684,0.3550733748480677
1647770041335123500,3.58012353515625,-0.026289456510543822,-0.22071407730616627,0.3687017949670553
1647770041345173500,3.590173583984375,-0.06796352915763855,-0.11546104726120829,0.22200959700942038
1647770041355224600,3.600224609375,-0.031204116559028622,-0.016974734872207044,0.07510112595260143
1647770041365274400,3.6102744140625,0.0841518628925085,0.040246377931535245,-0.020263035827875135
1647770041375325400,3.620325439453125,0.13687982899546622,0.08227299034334719,-0.0377820336446166
1647770041385375500,3.63037548828125,0.03353343628942966,0.08308810611851512,-0.060980830663442606
1647770041395425500,3.640425537109375,0.0989005192130804,0.09979724885709583,-0.0912125950589776
1647770041405476600,3.6504765625,0.2430669980853796,0.0968137760668993,-0.10501578722298145
1647770041415526700,3.660526611328125,0.12006897944808005,0.01993504598252475,-0.08156710709631443
1647770041425577500,3.670577392578125,0.0024865561187267303,-0.10777275778092443,-0.06553045679181814
1647770041435627500,3.68062744140625,0.022204233023524284,-0.18615049425140023,0.004801847323775291
1647770041445678600,3.6906787109375,0.05768062007427215,-0.08722177185714244,0.12130787359327078
1647770041455728600,3.700728759765625,0.022561375898122786,-0.07989537449181079,0.1431032335549593
1647770041465778700,3.71077880859375,0.00104220252931118,-0.013557839100807904,0.05376666150093078
1647770041475829500,3.72082958984375,-0.0049181671798229215,0.050742345243692394,-0.0055181788995862
1647770041485879300,3.73087939453125,0.005931728136539459,0.06660911887399852,-0.044751580396294594
1647770041495930400,3.740930419921875,0.07460486686825751,0.10642207382433116,-0.03150514533221722
1647770041505980400,3.75098046875,0.02375847672820091,0.10011252535134553,-0.017596739228069782
1647770041516031500,3.761031494140625,-0.16340543234944344,-0.0020708879899233577,0.038766660767793656
1647770041526081500,3.77108154296875,-0.1418178699195385,-0.053832566343992944,-0.020827683973312378
1647770041536131600,3.781131591796875,0.050206923192739485,-0.10860204821191727,-0.08936609040945769
1647770041546182700,3.7911826171875,0.09254325914084911,-0.14347630465105174,-0.097567809304595
1647770041556232400,3.801232421875,0.03912555720806122,-0.06716843325719236,-0.034060090512037275
1647770041566283500,3.811283447265625,0.03210486479103565,-0.034684359890222546,0.020664310105144978
1647770041576333600,3.82133349609375,0.012625672817230224,-0.02756334890387952,0.014459902507066726
1647770041586384600,3.831384521484375,-0.016450784063339233,0.012561156213656067,0.006897358298301696
1647770041596434700,3.8414345703125,-0.02899754642546177,0.06138422383256256,-0.02918576247394085
1647770041606484700,3.851484619140625,-0.03156009038984775,0.058403600586578244,-0.06923135713636874
1647770041616535600,3.86153564453125,-0.12413140658140182,0.018495660829171538,-0.06904635595828294
1647770041626585600,3.871585693359375,-0.16059037492871284,-0.013407032453268766,-0.1084239882312715
1647770041636636400,3.881636474609375,-0.123618196362257,0.008383505202829837,-0.14049904240593314
1647770041646686500,3.8916865234375,-0.11070026260018348,-0.009307561245188117,-0.1572457406759262
1647770041656737500,3.901737548828125,-0.029689035820960996,-0.02356923776641488,-0.20198036993741988
1647770041666787600,3.91178759765625,0.05268588052690029,-0.09014138563089072,-0.1602998675495386
1647770041676837400,3.92183740234375,0.10626257241368293,-0.1363213913951069,-0.10735065991133451
1647770041686888400,3.931888427734375,0.06462707821130752,-0.20364019290842114,-0.06911854441165924
1647770041696938500,3.9419384765625,-0.0061573535859584805,-0.20722338515743613,-0.043836511377990245
1647770041706989600,3.951989501953125,-0.08152092986702919,-0.17665807795859872,0.00026624972075223923
1647770041717039600,3.96203955078125,-0.14385492870509622,-0.11837474275082349,0.02327624616920948
1647770041727090700,3.972090576171875,-0.09438099596202373,-0.009802651285752653,-0.012839900089800358
1647770041737140700,3.982140625,-0.0431827236443758,0.06758629334308207,-0.06794745480567216
1647770041747190500,3.9921904296875,0.005091770181059837,0.052441769572719926,-0.06731880151331425
1647770041757241600,4.00224169921875,0.10196809009015559,-0.02008227243348956,0.0014063596665859221
1647770041767291600,4.012291748046875,0.18678630793690681,-0.09760507257506251,0.025927345199882983
1647770041777342500,4.022342529296875,0.20987258449196813,-0.1193523556113243,-0.015866846695542336
1647770041787392500,4.032392578125,0.18408757037222384,-0.044165378006175156,-0.039918753412365914
1647770041797443600,4.042443603515625,0.03185819655358791,0.05756064695641398,0.031057986086606978
1647770041807493400,4.052493408203125,-0.1593020886838436,0.05515848118551075,0.051772272813320155
1647770041817544400,4.06254443359375,-0.24438100329339502,0.07689363539256155,0.08693243352174758
1647770041827594500,4.072594482421875,-0.23161095356941222,0.07028853803910315,0.11822656645178795
1647770041837644500,4.08264453125,-0.1925467711597681,0.024669892484694717,0.10226941112428903
1647770041847695600,4.092695556640625,-0.10959726979434489,-0.054873161438107484,0.08878536791205406
1647770041857745700,4.10274560546875,0.027001988694071766,-0.12498926551975309,0.05341682514995336
1647770041867796700,4.112796630859375,0.27248773835897444,-0.10845737904421984,-0.015320318728685379
1647770041877846500,4.122846435546875,0.27151158680319787,-0.1159620555859059,-0.04754384146332741
1647770041887897600,4.132897705078125,0.08764671927094458,-0.09389547746740282,-0.008012918324768543
1647770041897947600,4.14294775390625,0.006022329029440879,-0.05716068785339594,-0.009158873489499092
1647770041907997700,4.152997802734375,0.029493805509805678,0.0010910831723362207,-0.036900574634969235
1647770041918048500,4.163048583984375,-0.028704700958728787,-0.005347425442561507,-0.01061813238710165
1647770041928098600,4.1730986328125,-0.11336802050471305,-0.036186142755299806,-0.019716215600073337
1647770041938149400,4.1831494140625,-0.09511632449924945,-0.023352307080104946,-0.019558102428913114
1647770041948199400,4.193199462890625,-0.1456593477785587,-0.016218582742661237,0.016681085687875748
1647770041958250500,4.20325048828125,-0.23202421054542063,-0.01576513988673687,0.010944880123436451
1647770041968300500,4.213300537109375,-0.1575508611023426,-0.05049538474529981,-0.005136193844676017
1647770041978350600,4.2233505859375,-0.04714636657834053,-0.08306341006867587,0.008277999001741409
1647770041988401700,4.233401611328125,-0.012609890726208686,-0.08982859335467219,0.02924363014101982
1647770041998451500,4.243451416015625,0.0037923780202865597,-0.042573140378668904,-0.028870705175399778
1647770042008502500,4.25350244140625,-0.01551321095228195,-0.0006236848562955855,-0.05020926128029823
1647770042018552600,4.263552490234375,-0.0934802477300167,0.04095598750561476,-0.0359849210947752
1647770042028603600,4.273603759765625,-0.02113338892161846,0.06212254804447293,-0.020955694267153737
1647770042038653700,4.28365380859375,0.06953004782199859,-0.006092763917148113,-0.029748072531819342
1647770042048703700,4.293703857421875,0.046429742741584776,-0.05212905036173761,-0.015077742144465446
1647770042058754600,4.303754638671875,-0.021859365108609197,-0.08570354931391776,0.02444908934086561
1647770042068804600,4.3138046875,-0.05275543863177299,0.002234919445216656,-0.03364069605618715
1647770042078855400,4.32385546875,0.1362619893580675,0.12187215641252695,-0.1291378365665674
1647770042088905500,4.333905517578125,0.23273031298816202,0.23168299589231608,-0.16130524519979952
1647770042098956500,4.34395654296875,0.16118132655918596,0.3191564044229686,-0.09917144510895014
1647770042109006600,4.354006591796875,-0.21371055521965027,0.16536935283355414,0.03326397169828415
1647770042119056400,4.364056396484375,-0.49238019708395003,0.04098587118722498,0.06460428185760975
1647770042129107500,4.374107421875,-0.5491653296232223,-0.09896569340378046,0.07228373044431209
1647770042139157500,4.384157470703125,-0.14489537766873836,-0.271300574401021,0.04135784630477428
1647770042149208600,4.39420849609375,0.45253217082023617,-0.3139563515618443,0.005122749841213226
1647770042159258600,4.404258544921875,0.5883528461515903,-0.27082974201887844,0.04785246902108192
1647770042169309700,4.414309814453125,0.33588732060194015,-0.25865378573052583,0.02951630960255861
1647770042179359700,4.42435986328125,-0.00293839153945446,-0.1929896195564419,0.1310226273998618
1647770042189409500,4.434409423828125,-0.3743973762601614,-0.12984905357584356,0.17231880664527416
1647770042199460600,4.444460693359375,-0.34979777253270145,0.030633988520875573,-0.014431260934472083
1647770042209510700,4.4545107421875,0.21273148105442521,0.33975502888076003,-0.18391250606626272
1647770042219561500,4.4645615234375,0.5434592269361019,0.46977359380461275,-0.18346447003781793
1647770042229611500,4.474611572265625,0.3034136224985122,0.3342012672111392,-0.1116226381421089
1647770042239662600,4.48466259765625,-0.09045885408222674,0.10020765628889203,0.10175298603475093
1647770042249712400,4.49471240234375,-0.517207179826498,-0.1026452586993575,0.28899171391427514
1647770042259763500,4.504763427734375,-0.6738841807037591,-0.23932605799138545,0.3309183000177145
1647770042269813500,4.5148134765625,-0.3756470840603113,-0.5918210337188095,0.45049218942523
1647770042279863600,4.524863525390625,0.2137047100007534,-0.9494948003236204,0.21779168705344198
1647770042289914600,4.53491455078125,0.5695569602668284,-0.74115329785645,-0.3388979005947709
1647770042299964700,4.544964599609375,0.6654384239196777,-0.22677103925757108,-0.6912038565561175
1647770042310015500,4.555015380859375,0.4966536366194486,-0.006729600515961646,-0.42578386462628837
1647770042320065500,4.5650654296875,0.1764122134387493,0.10601247011013329,-0.23213906909674406
1647770042330116600,4.57511669921875,-0.11138882938623428,0.2777203052502125,-0.09395224915593862
1647770042340166700,4.585166748046875,-0.5483569358497857,0.4476601808696985,0.0491343255251646
1647770042350216700,4.595216796875,-0.9075485596716404,0.36549773822873827,0.2505962245464325
1647770042360267500,4.605267578125,-0.5026204360693692,0.22802250062339008,0.16489830125570296
1647770042370317600,4.615317626953125,0.05480418785512447,0.09097316027991473,0.05376753828376531
1647770042380368400,4.625368408203125,0.14305238015055655,-0.11560717773362994,0.01909077717810869
1647770042390418400,4.63541845703125,0.1940723732918501,-0.23615378463082015,0.026207038924098012
1647770042400469500,4.645469482421875,0.2594844644010067,-0.1128404164340347,-0.08508271400183438
1647770042410519600,4.65551953125,0.1544885509222746,-0.007535729267075657,-0.259107155521214
1647770042420569600,4.665569580078125,0.084909987783432,0.20781959748491644,-0.2377703529819846
1647770042430620700,4.67562060546875,-0.10977028827369212,0.25229637952782213,0.009341828840970992
1647770042440670500,4.68567041015625,-0.31933833686113355,0.14687252296060324,0.10460662190020084
1647770042450721500,4.695721435546875,-0.24615385818481444,0.1312245797127485,0.09048223495781421
1647770042460771600,4.705771484375,-0.38309506197869775,-0.017537556386739015,0.2309849306255579
1647770042470822700,4.71582275390625,-0.3062561524480581,-0.24308577585108576,0.1309226741567254
1647770042480872700,4.725872802734375,0.1665092435836792,-0.3002667027749121,0.009899462723731994
1647770042490922500,4.735922607421875,0.4779769932001829,-0.23888123683333395,-0.17197773812264203
1647770042500973600,4.7459736328125,0.4690086738467216,-0.22949045428410172,-0.28095278436541554
1647770042511023600,4.756023681640625,0.2001537390321493,-0.17035357098691165,-0.2716892814576626
1647770042521074400,4.766074462890625,0.030574001961946484,-0.17801877185255288,-0.18250643866062163
1647770042531124500,4.77612451171875,-0.05592062466442585,-0.1204183774076402,-0.07174860065430402
1647770042541175600,4.786175537109375,-0.11357844838500022,0.014456906832382082,0.0714291594415903
1647770042551225600,4.7962255859375,-0.2038660375535488,0.11144143635630607,0.10481266586631535
1647770042561276700,4.806276611328125,-0.10435177035629749,0.19140571136586368,0.07774082680642605
1647770042571326500,4.816326416015625,-0.04674012386500835,0.2322629877373576,0.08839929120391607
1647770042581376800,4.826376708984375,0.019597849917411803,0.1836222909480333,0.047560500337183474
1647770042591427800,4.836427734375,-0.010114566779136656,0.10040171755626798,0.02153553998172283
1647770042601478000,4.846477783203125,-0.09698036480545998,-0.021758681213110684,0.0182625096604228
1647770042611529000,4.856529052734375,-0.11034604233503341,-0.0966666957464069,-0.04153261834979057
1647770042621578800,4.866578857421875,-0.02107026055753231,-0.13624613420180975,-0.12491495817452668
1647770042631629800,4.8766298828125,0.22536066100299357,-0.2155855553112924,-0.15739099436551332
1647770042641680000,4.886679931640625,0.19474866511821745,-0.2385251168720424,-0.044079964745044706
1647770042651730000,4.89672998046875,0.060765142086148256,-0.2000510093100369,0.09615531215816736
1647770042661780700,4.90678076171875,-0.0032844284981489178,-0.07016301196329296,0.05291968928277492
1647770042671830500,4.91683056640625,-0.10427870512008666,0.06761259682811796,-0.0013125439032912255
1647770042681881600,4.926881591796875,-0.11385843437016009,0.1734559939816594,-0.09397095385640859
1647770042691931600,4.936931640625,-0.1791390080541372,0.1705566192783415,-0.06195932030677795
1647770042701982700,4.946982666015625,-0.29697336031794547,0.12670637163594364,0.0131473586037755
1647770042712032800,4.95703271484375,-0.16718085923492906,-0.05613989343829453,0.15715221717357636
1647770042722082800,4.967082763671875,0.06151157653927802,-0.19233539343141018,0.03515665357708931
1647770042732134000,4.9771337890625,0.09863397723138331,-0.1590981636095792,-0.046398470820486544
1647770042742183700,4.98718359375,0.15243044934868813,-0.08137816039547324,-0.05652794290781021
1647770042752234800,4.99723486328125,0.030596213793754577,0.03194273303188384,-0.030801965498924253
1647770042762284800,5.007284912109375,-0.027840777605772016,0.08640672914721072,0.008812252008914946
1647770042772335900,5.0173359375,-0.046154432931542394,0.03064648267626762,0.0066661798909306525
1647770042782386000,5.027385986328125,-0.07543839508295058,-0.03090995591804385,-0.02532879478484392
1647770042792435700,5.037435791015625,0.02762450450658798,-0.08105828079134225,-0.07668371896892785
1647770042802486800,5.04748681640625,0.09161270029246807,-0.06636157385371624,-0.015934943495690822
1647770042812536800,5.057536865234375,-0.04433949246406555,-0.06762684454917907,0.05442950932383537
1647770042822587600,5.067587646484375,-0.08211363506317138,-0.09056085315197705,-0.0035001170754432676
1647770042832637700,5.0776376953125,-0.08785714715123176,-0.0694119013350457,-0.06481880139112473
1647770042842688800,5.087688720703125,-0.06793371854126452,-0.07729257158227265,-0.10982289524376392
1647770042852738800,5.09773876953125,-0.003207271608710289,-0.0656138972915709,-0.08996551760733128
1647770042862788600,5.10778857421875,-0.007120061138272285,-0.029450404759496448,-0.045564942605793475
1647770042872839700,5.117839599609375,-0.007898059773445128,0.04206899024881422,0.002387187397480011
1647770042882889700,5.1278896484375,0.08886661645472049,-0.0010524316623806954,0.03612462182641029
1647770042892940800,5.13794091796875,0.07116904720067978,-0.013455840031057596,0.06437456475496292
1647770042902990800,5.147990966796875,-0.0086661215364933,0.02143953226134181,0.01438040753006935
1647770042913042000,5.1580419921875,-0.05530161598324775,-0.013529635919630526,0.0077323478177189825
1647770042923091700,5.168091796875,-0.05751227777004242,-0.01439998901337385,0.016626725152134893
1647770042933142800,5.178142822265625,-0.06658698010742664,-0.06474990087337791,0.016500760684907436
1647770042943192800,5.18819287109375,-0.057792848277091975,-0.08617416250035166,-0.015416472579538822
1647770042953243000,5.198242919921875,0.005008768072724342,-0.04603146413899958,-0.059545829424262044
1647770042963293700,5.208293701171875,0.037840778094530104,-0.08105608883425593,-0.08704495398551225
1647770042973343700,5.21834375,0.025603812333941458,-0.04713226498775184,-0.06176847390979528
1647770042983394800,5.228394775390625,0.048911038163304325,-0.027219942293688654,0.019860884767770766
1647770042993444600,5.238444580078125,0.05391922171413898,-0.013491203605383634,0.06121171680986881
1647770043003495700,5.24849560546875,0.04277706545293331,-0.011347323444485663,0.07315525258183479
1647770043013545700,5.258545654296875,-0.03847673791050911,-0.027405601058900355,0.12345248440653085
1647770043023595800,5.268595703125,-0.04588321477472782,0.011588146463036537,0.04506634543389082
1647770043033646800,5.278646728515625,-0.034677930149435994,-0.013939604960009455,-0.14910831918865441
1647770043043697000,5.28869677734375,-0.0834369926214218,-0.008030965438112617,-0.13318272804319858
1647770043053747700,5.298747802734375,-0.0346644861459732,-0.015442556868866085,-0.0205173028498888
1647770043063797800,5.3087978515625,0.040193478700518606,-0.06647855129688977,0.03317103271782398
1647770043073848800,5.318848876953125,0.009671499186754227,-0.10053191980719565,0.023604162949323652
1647770043083899000,5.32889892578125,-0.05311258150637149,-0.12789791950806975,-0.02510930681526661
1647770043093949000,5.338948974609375,0.020350129589438437,-0.11289316953457891,-0.060892860119044774
1647770043103999700,5.348999755859375,0.0696685795098543,-0.04177307604216039,0.010701134495437145
1647770043114049800,5.3590498046875,-0.03890051628053188,0.002166165057942271,0.01968202106952667
1647770043124100600,5.3691005859375,-0.07071253560483455,-0.012249679111689329,-0.036380350153148173
1647770043134150700,5.379150634765625,0.016764087796211243,-0.02046915285922587,-0.01682078641951084
1647770043144201700,5.38920166015625,-0.022823241704702377,0.021181100520864127,0.023440789081156252
1647770043154251800,5.399251708984375,-0.01726560757756233,0.016757950316369532,0.021052140378952026
1647770043164302800,5.409302734375,0.14018120862841604,0.05039769652448594,0.09023995063453913
1647770043174352600,5.4193525390625,0.04853986676335335,0.020331059562787412,0.03785100722759962
1647770043184402700,5.429402587890625,0.08548281923532486,-0.052973026905208824,0.0317278481721878
1647770043194453800,5.439453857421875,-0.017346856120228765,-0.12314447790328413,0.07314882284104823
1647770043204503800,5.44950390625,-0.14096446796059608,-0.11976612404398619,-0.036273382647335525
1647770043214555000,5.459554931640625,-0.0625806670755148,-0.0715371498607099,0.019456980141997336
1647770043224605000,5.46960498046875,0.0048953708261251444,-0.02383366085626185,-0.07267097619622945
1647770043234655700,5.47965576171875,-0.07756020954251289,0.030846535293012855,-0.08379705810546874
1647770043244705800,5.489705810546875,-0.18933248528838156,-0.003585968727990985,-0.04629588722884655
1647770043254755800,5.499755859375,-0.13760229805111884,-0.06235109610334039,-0.0701964027762413
1647770043264806700,5.509806640625,-0.0769102212011814,-0.12900770738087594,-0.10167553688436747
1647770043274856700,5.519856689453125,-0.07783435030877589,-0.14389540684595703,-0.23275281708091497
1647770043284907800,5.52990771484375,0.17984335693120956,-0.14480985480975359,-0.1079258294507861
