time,seconds_elapsed,z,y,x
1647770110818147800,0.00914794921875,0.6749708068966865,-0.5992816519230604,-0.7566559874147176
1647770110828199000,0.019198974609375,0.8921458233565092,-0.6506798307269811,-1.1579907627001405
1647770110838250000,0.02925,0.8841524865150451,-0.6180483117133379,-1.235029286456108
1647770110848300000,0.039300048828125,0.8227005312085152,-0.47610067793428895,-1.2123976218007504
1647770110858351000,0.04935107421875,0.49301791046559806,-0.4348404467850923,-1.0470467544719577
1647770110868402000,0.05940185546875,0.36493747399747367,-0.3907815248280763,-0.9513149284228682
1647770110878452000,0.069451904296875,0.2465162617564201,-0.4075806839376688,-0.9719492817811667
1647770110888503000,0.0795029296875,0.35782091999053955,-0.505330864071846,-1.016122623898089
1647770110898554000,0.08955419921875,0.5870037696301936,-0.668285630044341,-0.9777433550126851
1647770110908604000,0.09960400390625,0.6391419531464576,-0.7970739225208758,-0.8990596943981946
1647770110918655000,0.109655029296875,0.5312012183874845,-0.8497241472125053,-0.8923489447131753
1647770110928706000,0.1197060546875,0.48881812068819996,-0.8884919770240783,-1.0001249904297291
1647770110938756000,0.129756103515625,0.6756763248175383,-0.8444108432352543,-1.046751278656721
1647770110948807000,0.139806884765625,0.8968576543092727,-0.7679220623165368,-0.9335340647995471
1647770110958857000,0.14985693359375,0.9442425058186054,-0.7460778947770595,-0.7951384244136512
1647770110968908000,0.159907958984375,0.9551941079437732,-0.707870621457696,-0.7451528888866304
1647770110978959000,0.169958984375,0.8535276311486959,-0.7007587436258792,-0.6726701287388801
1647770110989009000,0.1800087890625,0.5857575689613819,-0.6747387517064809,-0.6304013050690292
1647770110999060000,0.19006005859375,0.26902269259691236,-0.6503828936070203,-0.5204498150095344
1647770111009111000,0.200111083984375,0.06294365516901015,-0.6335849035412072,-0.41380744949802756
1647770111019161000,0.2101611328125,0.009486205747723579,-0.6159925482273102,-0.4698214515343308
1647770111029212000,0.2202119140625,0.10694237137138843,-0.5495686497271061,-0.5606849408946931
1647770111039263000,0.230262939453125,0.3331616950303316,-0.5029430921524762,-0.571665330722928
1647770111049313000,0.24031298828125,0.5812684408485889,-0.5065063375920057,-0.5169361078001559
1647770111059364000,0.250364013671875,0.9439023140788078,-0.5290279660016298,-0.49649654636159535
1647770111069414000,0.260413818359375,1.4141197791934013,-0.6137041450291871,-0.4619314289368689
1647770111079465000,0.27046484375,1.843485593959689,-0.7207657588660716,-0.3330382147811353
1647770111089516000,0.28051611328125,2.0810878968983886,-0.8062368876636028,-0.1871849701319821
1647770111099566000,0.290566162109375,2.1318331647515296,-0.7935580233544111,-0.146587568539381
1647770111109617000,0.300616943359375,1.933531775587797,-0.8164572529047727,-0.18118395788520575
1647770111119668000,0.31066796875,1.630811396050453,-0.8332423834890127,-0.16934972770661114
1647770111129718000,0.320718017578125,1.3000778049498796,-0.7863035221815109,-0.19123349660411476
1647770111139769000,0.33076904296875,1.1988327684372664,-0.668304334744811,-0.2566553784549236
1647770111149820200,0.340820068359375,1.2455530185580252,-0.5367267038106918,-0.3134728058286011
1647770111159870000,0.350869873046875,1.211981588345766,-0.43139761285483835,-0.4170356177642941
1647770111169921000,0.360921142578125,1.182289045393467,-0.4191624006599188,-0.5553995843702927
1647770111179971000,0.37097119140625,1.1962626256883144,-0.46943829743564125,-0.5432216553205624
1647770111190022000,0.38102197265625,1.2520710221499205,-0.5148644160926342,-0.5093427300617098
1647770111200073000,0.391072998046875,1.310112876752019,-0.5669704509049653,-0.4747255901888013
1647770111210123000,0.401123046875,1.3450304608762262,-0.6385846115246415,-0.4323246645718813
1647770111220174000,0.411174072265625,1.2688602443873882,-0.7313195938453078,-0.48214624170884485
1647770111230225200,0.42122509765625,1.108779572546482,-0.8137479939460754,-0.5399237462863326
1647770111240275000,0.43127490234375,0.8603799812614917,-0.9130880736202001,-0.5453444561608135
1647770111250326000,0.441325927734375,0.694666271969676,-1.0121028668627143,-0.5825679791398346
1647770111260376800,0.451376953125,0.701650724029541,-1.1150737042546273,-0.6460702911049128
1647770111270427000,0.461427001953125,0.8671627732694148,-1.2723261669322847,-0.6515101440712809
1647770111280478000,0.47147802734375,1.1116250251054762,-1.4288476849868892,-0.6938854968555271
1647770111290528000,0.481528076171875,1.258821080932021,-1.5747987091884017,-0.7484606251951307
1647770111300579000,0.4915791015625,1.292272099635005,-1.790200870756805,-0.8203121747672557
1647770111310630100,0.501630126953125,1.2194897720187903,-1.9772537206754088,-1.0177416034020483
1647770111320680000,0.511679931640625,0.9084791185200214,-1.9671908840835093,-1.0666665239602326
1647770111330731000,0.52173095703125,0.4384299957096576,-1.8752175337851047,-1.0073115409329534
1647770111340781800,0.53178173828125,-0.011666472396254539,-1.7961428280264138,-0.9262614434480666
1647770111350831900,0.541831787109375,-0.41370296621024605,-1.7463199357151984,-0.7424980635289102
1647770111360883000,0.551883056640625,-0.9741384623885154,-1.7087036140263079,-0.4944548114009201
1647770111370934000,0.56193408203125,-1.5770447345495222,-1.627104065965116,-0.4033006685309112
1647770111380984000,0.571984130859375,-1.728989446207881,-1.4232675467669964,-0.39780039061419664
1647770111391035100,0.58203515625,-1.416897427213192,-1.414466985195875,-0.33498971417509016
1647770111401086200,0.592086181640625,-0.6710054103970527,-1.7508569946229458,-0.12436514227204024
1647770111411136000,0.602135986328125,0.2324485734373331,-2.0092241454318165,0.305986833987385
1647770111421186800,0.612186767578125,0.7718278375834227,-1.935946727775037,0.7915939567398279
1647770111431236900,0.62223681640625,0.8639251065224408,-1.64920629991889,1.2025626756805925
1647770111441288000,0.632287841796875,0.5865992804825305,-1.536934550218284,1.3634224421352148
1647770111451339000,0.642339111328125,0.16656828029453755,-1.533825478287041,1.3838982439309357
1647770111461389000,0.65238916015625,-0.0832148743033409,-1.3985226893499494,1.3325443426601589
1647770111471440100,0.662440185546875,-0.19592589220404624,-1.154959139919281,1.1632008254986255
1647770111481491200,0.6724912109375,-0.41017362304031846,-0.9897411051899194,0.9830532249238342
1647770111491541000,0.682541015625,-0.7103308740913867,-0.8472194709151982,0.8966795212633907
1647770111501591800,0.692591796875,-1.0852642569243907,-0.6026268706977367,0.8407851270187645
1647770111511643000,0.702642822265625,-1.4739391648620366,-0.22824995270371437,0.6956788100130855
1647770111521693000,0.71269287109375,-1.9411761528611182,0.019957623140513896,0.6678873514417558
1647770111531744000,0.722743896484375,-2.4228432327508926,0.13195523207485674,0.6482523113191128
1647770111541794000,0.7327939453125,-2.67937936874032,0.20855770250111816,0.4840541942220181
1647770111551845000,0.74284521484375,-2.6320500468105075,0.11264087527394294,0.28158874418139457
1647770111561896200,0.752896240234375,-2.040375947281718,-0.0821826086461544,0.1847293023418635
1647770111571946000,0.762946044921875,-0.8995213205605744,-0.3012815789058804,0.189662228699401
1647770111581996800,0.772996826171875,0.4964414551734924,-0.6153463592782616,0.3849305337775498
1647770111592047900,0.7830478515625,1.6453694982349871,-0.7155939091861248,0.7453720845952629
1647770111602098000,0.793097900390625,2.2651795589238404,-0.6982432536736131,1.0298354343648999
1647770111612149000,0.80314892578125,2.341524547457695,-0.7671376339405774,1.1454653353869915
1647770111622200000,0.813199951171875,1.801636749267578,-0.8691665143072604,1.1101886356268078
1647770111632250000,0.82325,0.9725403795421123,-0.8986676263406872,0.8356273058641701
1647770111642301200,0.83330126953125,0.3946183265119791,-0.8370046586319804,0.4994437057293951
1647770111652351700,0.843351806640625,0.18052841658592222,-0.6976368122130632,0.30687801067344844
1647770111662401800,0.85340185546875,0.06329612186849116,-0.5888888527244329,0.19825703856535254
1647770111672452900,0.863452880859375,0.035004677885770795,-0.44923692866712805,0.11287179795298724
1647770111682502700,0.873502685546875,0.14327859012186525,-0.24133126033395527,0.031160533145628867
1647770111692553700,0.8835537109375,0.3063894234389066,-0.15389087729007006,-0.10347345315180718
1647770111702604800,0.893604736328125,0.38709085361659523,-0.019941841049492356,-0.18098346687704323
1647770111712654800,0.90365478515625,0.47657998588383194,-0.07771072392910719,-0.18148926097471266
1647770111722706000,0.913705810546875,0.7299293085306883,-0.16422697786539792,-0.1290155618937686
1647770111732756700,0.9237568359375,0.9102636638492345,-0.19656857402175665,-0.035363464728184045
1647770111742806800,0.933806884765625,1.1419780777931212,-0.2339844047024846,-0.047431905521452426
1647770111752857900,0.94385791015625,1.3881564858973026,-0.2714727160975337,-0.06308689956460148
1647770111762909000,0.953908935546875,1.595695659005642,-0.3064797320708632,-0.008094751389324665
1647770111772958700,0.963958740234375,1.7419091335356234,-0.34493425814956424,-0.0728225134961307
1647770111783009800,0.974009765625,1.7013848154455422,-0.44391310329586264,-0.11063892433438449
1647770111793059800,0.984059814453125,1.5508780276358127,-0.5577911191493272,-0.18988719656169414
1647770111803111000,0.99411083984375,1.3679367046892643,-0.6180129481390119,-0.27978417897745966
1647770111813161700,1.00416162109375,1.183207913804054,-0.6781774939835071,-0.31963819659054277
1647770111823212000,1.0142119140625,1.1396277152746914,-0.7784861264288425,-0.3386585388809442
1647770111833262800,1.024262939453125,1.1970511457175015,-0.8207397525295614,-0.3546341066479683
1647770111843314000,1.03431396484375,1.3663625872403382,-0.8666551160082221,-0.38330494186971337
1647770111853363700,1.04436376953125,1.4802800583213567,-0.9995914680749177,-0.42206575741861013
1647770111863414800,1.054414794921875,1.253485565122962,-1.145005608920753,-0.4724326569460332
1647770111873465900,1.0644658203125,0.7819032413959502,-1.132416760982573,-0.5506594041058793
1647770111883516000,1.074515869140625,0.22427578837573528,-1.079917050677538,-0.604227437762171
1647770111893566700,1.084566650390625,-0.2108843918830156,-1.1604466314196586,-0.7582851960517466
1647770111903617800,1.09461767578125,-0.35828736845850945,-1.2322025385975837,-0.934756738462299
1647770111913667800,1.104667724609375,-0.35295711334645746,-1.2294149537056684,-0.9537266657397151
1647770111923719000,1.114718994140625,-0.29589374838769433,-1.2697691759258507,-0.9853051685690879
1647770111933770000,1.12477001953125,-0.2941577183753252,-1.4099451238572596,-1.0729938272856174
1647770111943819800,1.13481982421875,-0.23331425035595893,-1.685793863081932,-1.161052926749736
1647770111953870800,1.144870849609375,-0.24081249715685843,-1.9311232531413436,-1.235046968243271
1647770111963921000,1.1549208984375,-0.3861421745896339,-1.9902365363672374,-1.3471300635039805
1647770111973972000,1.164971923828125,-0.6813526168882846,-1.8229305894479155,-1.5272788331225513
1647770111984022800,1.175022705078125,-1.27144909183681,-1.5044643592461944,-1.5794646551728249
1647770111994072800,1.18507275390625,-2.107354557055235,-1.1225482779189944,-1.5885016558483243
1647770112004124000,1.1951240234375,-3.02612067631185,-0.6538622601553797,-1.7512423406787216
1647770112014175000,1.205175048828125,-3.93410002861619,-0.13560001831799745,-1.8627780311897395
1647770112024224800,1.215224853515625,-4.553160147720575,0.275472599388659,-1.8925845559105277
1647770112034275800,1.22527587890625,-4.478279386520385,0.5438251376390457,-1.9460427359841763
1647770112044326700,1.23532666015625,-3.756874160706997,0.6497893116280437,-1.8493899956978856
1647770112054377000,1.245376953125,-2.696534501680732,0.4878834701865911,-1.4473592009723186
1647770112064427800,1.255427734375,-1.6238742902636527,0.3308396818235516,-1.0093980648834258
1647770112074477800,1.265477783203125,-0.9394646238923072,0.26526187875866886,-0.6900565862171352
1647770112084529000,1.27552880859375,-0.6671791301071643,0.21200871973782776,-0.40703612873218953
1647770112094580000,1.285580078125,-0.6688444329708815,0.21923487159907817,-0.3227516524359584
1647770112104629800,1.295629638671875,-0.7579998032391071,0.3078977821752429,-0.396814521382004
1647770112114680800,1.305680908203125,-0.9021469928890467,0.44652299353331326,-0.3167375797782093
1647770112124732000,1.31573193359375,-0.8153250340044498,0.612682400766015,-0.17688079906487836
1647770112134782000,1.325781982421875,-0.5179641356736421,0.8299398348122835,0.11162804496958852
1647770112144832800,1.335832763671875,-0.04269640143215656,1.1286191222652793,0.2774451415706426
1647770112154883800,1.3458837890625,0.5405278496593237,1.2463795325100422,0.23777269106954335
1647770112164934000,1.355933837890625,0.9571183540046214,1.2724901253223417,0.30506628507636485
1647770112174985000,1.36598486328125,1.5935317589700222,1.3835989687234163,0.23765732106156645
1647770112185036000,1.3760361328125,2.079285231390595,1.565749141292274,0.4808895927112549
1647770112195085800,1.3860859375,2.606813898745179,1.4834826537549495,0.6173322723984718
1647770112205137000,1.396136962890625,3.259851106253266,1.137064294527471,-0.07542020183913409
1647770112215187000,1.40618701171875,3.585005435916781,1.1124261123552919,-0.034378289615735406
1647770112225237800,1.41623779296875,3.592450491225719,1.3608935081794857,0.3665590838499367
1647770112235288800,1.426288818359375,3.3054403065174816,1.4037585441768168,0.5459139996770769
1647770112245339000,1.4363388671875,2.994179477649927,1.2473317186683415,0.5517529349636286
1647770112255390000,1.446389892578125,2.8150317017674444,1.0785291034504771,0.5739841290593147
1647770112265441000,1.45644091796875,2.5943168207436798,0.941794528144598,0.8289035505671054
1647770112275490800,1.46649072265625,2.229442475110292,0.7975941470026969,1.1113189548309892
1647770112285542000,1.4765419921875,1.698630548301339,0.8652987329632044,1.3702856059029698
1647770112295592700,1.4865927734375,2.026640851917863,0.2751075654685497,1.498728884334117
1647770112305642800,1.496642822265625,2.3068384340018033,0.04532791897952557,1.3002895480044185
1647770112315693800,1.50669384765625,2.5370447814702985,0.26689474065750834,0.2852418233288452
1647770112325745000,1.516744873046875,2.299250755351782,0.2804676311969757,0.5780007077569141
1647770112335795000,1.526794921875,2.2049416555821892,0.041322774991393085,0.7342598850809037
1647770112345846000,1.536845947265625,1.6153168897986412,-0.16550971115231514,0.673355261458829
1647770112355895800,1.546895751953125,1.129594981560111,-0.3549900804787874,0.7102647500526159
1647770112365947000,1.55694677734375,1.034352984854579,-0.33684272163063284,0.6856989755295216
1647770112375997700,1.566997802734375,0.9767886846363544,-0.12448182745426893,1.1094632439617067
1647770112386047700,1.5770478515625,1.0154109684973955,0.16748773322701452,1.5888436011537908
1647770112396098800,1.587098876953125,1.0097837762653827,0.2022127173885703,2.0785316365443167
1647770112406150000,1.59714990234375,0.9847767607808112,0.2719716055303812,2.26023801086843
1647770112416200000,1.607199951171875,0.05612871445715427,0.26981939593255516,2.3674622679211197
1647770112426251000,1.6172509765625,-0.8662216930270195,-0.7708435027211904,1.9601850969746708
1647770112436301800,1.6273017578125,-0.8563181386500597,-1.3419365865141153,1.419855400235951
1647770112446352000,1.637351806640625,-0.8423913201063871,-1.4684949279814958,1.6162392653405666
1647770112456402700,1.647402587890625,-1.2416735467761755,-1.7134958167389034,1.918770552046597
1647770112466452700,1.65745263671875,-1.398297356161475,-1.7263760488390922,2.2247592857301233
1647770112476503800,1.66750390625,-1.356616269251704,-1.5418576858341693,2.496176179987192
1647770112486555000,1.677554931640625,-0.6375123061180115,-1.2133172208636998,2.360978604990244
1647770112496605000,1.68760498046875,-0.33639702368974683,-1.0238087944865226,2.4721800951108337
1647770112506656000,1.697656005859375,0.05386661474406719,-0.8690043094828724,2.5827678372472525
1647770112516706800,1.707706787109375,1.81405433229208,-0.22931495158672333,2.763638783660531
1647770112526756900,1.7177568359375,3.4858149938464162,0.32013825506716964,3.226696732409298
1647770112536807700,1.7278076171875,3.676092651030421,-0.6261302036210894,3.0081016200184822
1647770112546858800,1.737858642578125,2.9367776745170353,-1.3175287059664726,2.7979189466640353
1647770112556908800,1.74790869140625,1.693141887757182,-2.445435296048224,2.511915016388893
1647770112566959900,1.7579599609375,1.0576286465018987,-5.233128616774082,2.4765520265847445
1647770112577011000,1.768010986328125,-0.9895096345216036,-6.241697756552695,4.606475558322668
1647770112587061000,1.77806103515625,-2.6855963435590264,-7.9356866165280335,6.372765684399009
1647770112597112000,1.788112060546875,-3.581872398588061,-8.909473196738958,7.23885410643518
1647770112607161900,1.798161865234375,-5.029967512619495,-10.86798860693574,7.653349099805951
1647770112617212700,1.808212646484375,-8.541509652918577,-13.827909256631136,6.502519022515416
1647770112627263700,1.818263671875,-11.08367484614253,-16.727356440663335,5.1339539567947385
1647770112637313800,1.828313720703125,-13.344540048998594,-14.710180751705169,1.309674485334754
1647770112647364900,1.83836474609375,-12.681800947165488,-6.659871730697154,-8.049370863375067
1647770112657415700,1.848415771484375,-13.28609838142395,-5.981468611264228,-8.819154627910256
1647770112667465700,1.8584658203125,-13.522648544961214,-3.463761859731376,-8.818123531296848
1647770112677516800,1.868516845703125,-11.996366029399633,0.21760464004874228,-9.35649157257378
1647770112687567600,1.878567626953125,-10.509476782071589,1.9107371754556892,-9.497340305200218
1647770112697617400,1.888617431640625,-8.127747065475583,3.0244854763254523,-6.309342721280455
1647770112707668500,1.89866845703125,-5.347668603667617,4.580323756717145,-2.1464275072932244
1647770112717719600,1.908719482421875,-3.662705346190929,6.082148999631404,-0.7310685416936874
1647770112727769600,1.91876953125,-2.2441496303766963,6.991210886475444,-0.13289514327347277
1647770112737820700,1.928820556640625,-0.9311790261059999,7.136105679622292,0.6968529683589935
1647770112747870700,1.93887060546875,0.6075888770192861,7.405138893613219,2.1427046873778104
1647770112757921800,1.948921875,1.3763237170234321,7.854433397686481,4.450684692630172
1647770112767972600,1.95897265625,1.1877706916749478,8.22364898739457,6.616193332490324
1647770112778022400,1.9690224609375,1.1160691450327633,7.969875301855802,7.441600784569978
1647770112788073500,1.979073486328125,1.4094555867746472,6.676136636799574,8.367468844786286
1647770112798124500,1.98912451171875,2.5672560875996946,4.741370058719814,8.930790710055827
1647770112808174600,1.999174560546875,4.219254940846562,3.4750825874298807,8.192836500501633
1647770112818225700,2.0092255859375,4.940520465928316,3.2549364462047814,7.755045971739292
1647770112828276700,2.01927685546875,4.669066162270307,2.675134570777416,8.03200413351059
1647770112838326800,2.029326904296875,4.2931183416977525,1.8251371595814823,8.134803998249769
1647770112848377600,2.039377685546875,3.1428669410780072,1.4428791329488158,8.691249548009038
1647770112858427600,2.049427734375,0.8400316052377224,2.4207488908201453,9.637893854272365
1647770112868478500,2.059478515625,-1.8553519728422163,3.7793995885089036,11.147778192740677
1647770112878529500,2.069529541015625,-3.992994408394396,4.6476501570150255,12.55686290037632
1647770112888579600,2.07957958984375,-4.403519621351361,5.280980501273274,12.676200058418512
1647770112898630700,2.089630615234375,-4.162256457817554,5.183622535327077,13.151262040954828
1647770112908681700,2.099681640625,-3.432364558687806,4.854519175776839,12.670585141146182
1647770112918731800,2.109731689453125,-1.600878030079603,3.843914146256447,10.507636707162856
1647770112928782600,2.119782470703125,-0.1850824266284704,2.9013319748654958,8.79236598970592
1647770112938833700,2.129833740234375,0.07838672349452971,2.6136320543274283,7.400487268415093
1647770112948883500,2.139883544921875,-0.800786805564165,2.567229199592769,6.30204087383449
1647770112958934500,2.1499345703125,-1.8531378039240836,2.620193020278215,7.025146473824978
1647770112968985600,2.159985595703125,-3.179928551493585,3.3848987508967516,8.204792311233282
1647770112979035600,2.17003564453125,-5.378232668757438,4.19390393422991,8.96719064169228
1647770112989086700,2.180086669921875,-6.706797148001193,4.484523249346018,10.207989743721484
1647770112999136800,2.19013671875,-6.7005240590810775,4.662217611549794,10.658859534287451
1647770113009187600,2.2001875,-5.157442384409904,4.680082061803341,10.7185251906991
1647770113019238700,2.21023876953125,-3.0713264302164314,4.134470333008468,9.906860432767868
1647770113029288400,2.220288330078125,-1.6185449119344353,2.954145281164348,7.762885579323768
1647770113039339500,2.230339599609375,-1.3751368453264237,1.75598705098778,5.6900651600331065
1647770113049390600,2.240390625,-2.266535357446968,1.6403347189381718,4.501537512511015
1647770113059440600,2.250440673828125,-5.121278599616885,2.332477609910071,4.875014851316809
1647770113069491700,2.26049169921875,-8.978478343904017,3.5328704672709104,6.031592532348633
1647770113079542500,2.27054248046875,-11.379061814051866,4.444709709873795,6.807223269346356
1647770113089592600,2.280592529296875,-12.47329146772027,3.661758128468692,7.883084322631358
1647770113099643600,2.2906435546875,-12.479063036859035,2.1054010848999023,7.445538124018907
1647770113109694500,2.300694580078125,-11.805158397889137,-0.011019991186261176,6.575700578582286
1647770113119744500,2.31074462890625,-11.17304707403183,-3.067020841977,5.5554743187576525
1647770113129795600,2.320795654296875,-10.693725095963478,-3.774476160632074,6.306905849522352
1647770113139846700,2.3308466796875,-13.359395088303089,0.036842706967890264,6.618814328643679
1647770113149896700,2.340896728515625,-16.198796676695345,6.072082948169112,6.259992707177997
1647770113159947500,2.350947509765625,-14.578520703184603,11.223402465784549,3.177994076299667
1647770113169997600,2.36099755859375,-8.439381403830646,17.30575955520868,-1.6680173833727836
1647770113180048600,2.371048583984375,-0.9652923081099987,23.532182585740088,-2.7599153792232274
1647770113190099700,2.381099609375,5.926963698616624,29.91865004775524,-4.437135475227237
1647770113200149500,2.3911494140625,14.683671514964104,38.65903392128944,-9.450137239998579
1647770113210200600,2.40120068359375,33.543279638051985,48.36934068534374,-20.782699168682097
1647770113220251600,2.411251708984375,55.65449886231422,43.3257678412199,-31.242521985268592
1647770113230301700,2.4213017578125,60.97181499781608,38.38619079362154,-27.36554728093147
1647770113240352500,2.4313525390625,71.44459081947804,32.832063797819615,-7.674003180778026
1647770113250403600,2.441403564453125,70.18859356379508,19.829481913769243,5.4725347542643545
1647770113260453600,2.45145361328125,52.45196889517307,13.801471331560611,-1.1501292355448007
1647770113270504700,2.461504638671875,23.79648935573101,17.866374499607087,-0.74454761646986
1647770113280555500,2.471555419921875,2.3595734143674374,16.65599099410772,8.288101878082752
1647770113290605600,2.48160546875,-15.17200915865898,10.185125585484505,10.898988140833378
1647770113300656600,2.49165673828125,-23.240527205574512,6.694519850230217,6.2435109434545035
1647770113310707500,2.50170751953125,-12.9681722494483,3.54400560926944,5.378436666896939
1647770113320757500,2.511757568359375,-5.079538475996255,0.42554625647813077,2.4475877979069947
1647770113330808600,2.52180859375,-3.0161586697459217,-3.577795650668442,-1.5422633440256117
1647770113340858600,2.531858642578125,-2.3483400726914403,-5.650929665952921,-4.380394181829691
1647770113350909700,2.54190966796875,-3.550059794741869,-6.210532218438386,-4.256170420789719
1647770113360960500,2.55196044921875,-4.009879199960827,-5.81656154218018,-2.2678408870875835
1647770113371010600,2.562010498046875,-3.6091882755368947,-5.150949515259265,-0.42413902002871035
1647770113381061600,2.5720615234375,-3.274918911525607,-4.469420372760296,0.5394190116345882
1647770113391112400,2.582112548828125,-3.297897051531076,-3.62993588001132,1.4089543592542408
1647770113401162800,2.592162841796875,-3.994564726451039,-2.379557925514877,2.424860417792201
1647770113411213600,2.602213623046875,-4.801180384299159,-1.479199569608271,3.3970676198571916
1647770113421264600,2.6122646484375,-4.946183898517489,-1.0000444725394249,4.197850333768129
1647770113431314700,2.622314697265625,-4.399389389678835,-1.4464964466631411,3.555695170280337
1647770113441365500,2.632365478515625,-3.238278741392493,-2.0603589971244336,2.4335785617768764
1647770113451415600,2.64241552734375,-2.7689100020617246,-2.1903815075710416,1.2698521780341863
1647770113461466600,2.652466552734375,-3.107166974404454,-1.9963439133316276,0.7161766775101422
1647770113471517400,2.662517333984375,-4.152404925888777,-1.4152557974860072,0.6191992353141308
1647770113481567700,2.672567626953125,-4.937927526825666,-0.599642301928997,0.9640385086566209
1647770113491618600,2.68261865234375,-5.705885244977474,0.4995734695889055,1.9056027351766824
1647770113501669600,2.692669677734375,-6.141980075737834,1.1841073468618095,3.562663255727291
1647770113511719700,2.7027197265625,-5.309489971920848,1.2355901352092622,4.509759981933236
1647770113521770800,2.712770751953125,-3.919798531541228,1.1857695809856057,3.9312896473705767
1647770113531821600,2.722821533203125,-2.928984244161844,0.8474770989380777,2.7116157509565353
1647770113541871600,2.73287158203125,-2.157298445397615,0.5493488694965839,1.237463235604763
1647770113551922400,2.74292236328125,-1.8349714481145143,0.4517877821937203,0.32151626542210576
1647770113561973500,2.752973388671875,-1.2554799538105725,0.3419510045550763,0.24509938069581985
1647770113572023600,2.7630234375,-0.7759919715255499,0.5305791409663856,1.1602256821453572
1647770113582074600,2.77307470703125,-0.6263631355941295,1.1155836996033788,2.2560434817880393
1647770113592125700,2.783125732421875,-0.5407400311052799,1.9378266963027417,3.1691677957653996
1647770113602175700,2.79317578125,-1.07631347322762,2.443694443730265,3.658895432513952
1647770113612226600,2.8032265625,-2.210241515555978,2.335265487062931,3.456603512409329
1647770113622277400,2.81327734375,-2.7744752349734303,1.5933452964872121,2.029777980899811
1647770113632327700,2.82332763671875,-1.9569763640612363,0.8268274018801748,-0.37805589876770973
1647770113642378500,2.83337841796875,-0.34108079759180543,0.13364574244506655,-2.561859489253163
1647770113652428800,2.8434287109375,1.0903729782402514,-0.20948124708682297,-3.391068087181449
1647770113662480000,2.85347998046875,2.089283478313684,-0.04487842164635658,-2.7515169687122105
1647770113672531000,2.863531005859375,2.1042676969558,0.5398873597986996,-1.2245803731560707
1647770113682581000,2.8735810546875,1.421912625026703,1.1141700334131717,0.5072732303112745
1647770113692632000,2.883632080078125,1.0883552086770534,0.9626800797849893,1.1603180366039276
1647770113702682600,2.8936826171875,1.4704519072681665,0.5072914966203272,1.0484101517796516
1647770113712732700,2.903732666015625,2.0667092429339884,-0.045654232891020365,0.6345540408343077
1647770113722783700,2.91378369140625,2.780976871952414,-0.6704686001066118,0.2677016731262207
1647770113732834800,2.923834716796875,3.4108547376692293,-1.1751397581607104,-0.04084580512940884
1647770113742884900,2.933884765625,3.903099325674772,-1.5440304998286067,-0.5519219348549842
1647770113752936000,2.94393603515625,3.9910464891970157,-1.7437646982744335,-0.9603396541386842
1647770113762987000,2.953987060546875,4.25620607662499,-1.881356767192483,-1.2668068189889192
1647770113773037000,2.964037109375,3.8389994862079617,-1.7788436104401946,-1.4094272374629973
1647770113783087600,2.974087646484375,2.982131896981597,-1.4506602883443236,-0.8101140213578939
1647770113793137700,2.9841376953125,1.9784978755176066,-1.0777034662812948,0.07260054130852223
1647770113803188700,2.994188720703125,1.109023902696371,-0.7695843695055693,0.7280114922106266
1647770113813239800,3.00423974609375,0.43816871442496774,-0.81175331299752,0.884891322183609
1647770113823289900,3.014289794921875,-0.031926001092791555,-1.2228682354759424,0.19173487025499342
1647770113833341000,3.0243408203125,-0.40977322554588314,-1.2335216583721338,-0.3147539316803217
1647770113843392000,3.03439208984375,-0.9359446330726147,-0.982293492597714,-0.254112708234787
1647770113853442000,3.044442138671875,-1.29506026904881,-0.8106213132929057,-0.3224760503649711
1647770113863492900,3.054492919921875,-1.1810469363778828,-0.6530242749612778,-0.3734305770546198
1647770113873543700,3.064543701171875,-0.8628922563433646,-0.4966244105249643,-0.36135786194503305
1647770113883593700,3.07459375,-0.7421832254260778,-0.43754488343819975,-0.11964110942482947
1647770113893644800,3.084644775390625,-1.0483008461862802,-0.34133820641897616,0.5128180049568415
1647770113903696000,3.09469580078125,-1.2195692669957876,-0.04836370647884905,0.888287394362688
1647770113913746000,3.104745849609375,-1.3163053016513586,0.25778372489772733,1.1199614762961865
1647770113923797000,3.114796875,-1.5611615212410688,0.10610803943909704,1.1510428432583808
1647770113933847000,3.124846923828125,-1.5822311972767114,0.007879428138211369,1.106739591151476
1647770113943897900,3.13489794921875,-1.4123738123089074,0.23945297230668364,1.198510696876049
1647770113953948700,3.14494873046875,-1.0194073446571825,0.36180034501552577,0.901523308032751
1647770113963998700,3.154998779296875,-0.8392138591140508,0.2011906077992171,0.6828840642392635
1647770113974049800,3.1650498046875,-0.6435726290702819,0.08818433327898383,0.40948154912292956
1647770113984100900,3.175100830078125,-0.38424481653571124,0.0721042822241783,0.27094518509209153
1647770113994151000,3.18515087890625,-0.49469198115766044,0.15820216461792588,0.43008536121249197
1647770114004202000,3.195201904296875,-0.7377776839435101,0.3521993903143331,0.7466822904109954
1647770114014252800,3.205252685546875,-1.0214473260521888,0.609695640040189,0.9092793289870024
1647770114024302800,3.215302734375,-0.9991711968362331,0.6860933086093515,0.7526870837837457
1647770114034353700,3.225353759765625,-0.8100842107415199,0.6462704898521304,0.5018108732521533
1647770114044404700,3.23540478515625,-0.48093584300577635,0.7110377802517265,0.24645371791422366
1647770114054454800,3.245454833984375,-0.22894904088377951,0.7704516538593917,0.02296469600200653
1647770114064505900,3.255505859375,-0.1005038627564907,0.6964598773881793,-0.36917525769770143
1647770114074556000,3.265555908203125,0.28354513894617556,0.5139716319713741,-1.110524954909086
1647770114084607000,3.27560693359375,0.7870558018535375,0.28131175387091933,-1.742430527061224
1647770114094657800,3.28565771484375,1.0810632981032133,0.27556078912876547,-1.720064965996146
1647770114104707800,3.295707763671875,1.0626122801333666,0.41004729324690997,-1.423113232988119
1647770114114759000,3.305759033203125,1.0592594625741243,0.5054381969038397,-1.1187082613646984
1647770114124809700,3.315809814453125,0.9226029209405183,0.5919487517517059,-0.8808739032357931
1647770114134859800,3.32585986328125,0.6520639785617589,0.5385374064944685,-0.8351660450279712
1647770114144910800,3.335910888671875,0.6816629980117083,0.45564621118754145,-0.6716057143777608
1647770114154962000,3.3459619140625,0.8746312094539404,0.31979119519516824,-0.8305185114830732
1647770114165012000,3.356011962890625,0.9491045588970184,0.1174337355736643,-0.8089508227974176
1647770114175062800,3.366062744140625,1.024779685345292,-0.10100304445028305,-0.8703770591408013
1647770114185113900,3.37611376953125,1.1064309635937213,-0.25463717050030826,-1.0296610276460647
1647770114195164000,3.386163818359375,1.2025900751441716,-0.34646490178294476,-1.0552490578889846
1647770114205214700,3.396214599609375,1.1511533178955315,-0.4297182814657688,-1.1617536223649978
1647770114215264800,3.4062646484375,0.720530196544528,-0.4166919919583946,-0.8711305078566074
1647770114225315800,3.41631591796875,0.2132066973507404,-0.2633009539492428,-0.3361059317886829
1647770114235367000,3.426366943359375,-0.3113894236832857,-0.11730353332273662,0.18075053490400314
1647770114245417000,3.4364169921875,-0.67475920997262,-0.07361753633134066,0.4201356296062469
1647770114255467800,3.4464677734375,-0.8775146559357643,-0.04897182843983173,0.5694634367644786
1647770114265518800,3.456518798828125,-0.9164794696241617,-0.018702362382411956,0.6936135480463504
1647770114275569000,3.46656884765625,-0.899350640168786,0.06338058528155088,0.804032071095705
1647770114285619700,3.47661962890625,-0.813256411036849,0.010016951623558997,0.7111217322081327
1647770114295670800,3.4866708984375,-0.5940794071048497,-0.15103906805552542,0.38334465282559393
1647770114305720800,3.496720947265625,-0.4198164806544781,-0.244802078249678,0.08368775251209735
1647770114315772000,3.50677197265625,-0.42838907868862147,-0.31482743530794977,0.07919336370229721
1647770114325822700,3.51682275390625,-0.5340659601688384,-0.2463466773431748,0.3309001798391342
1647770114335872800,3.526872802734375,-0.7171335398435592,-0.08584186180606485,0.6428712028026581
1647770114345923800,3.536923828125,-0.7669424036294221,0.021269144130498168,0.7937181823521852
1647770114355975000,3.546974853515625,-0.6208470025211572,0.05587400904372334,0.6365478450000286
1647770114366024700,3.557024658203125,-0.4981967744082212,0.019081278697401283,0.43824294870495795
1647770114376075800,3.56707568359375,-0.38326983402371406,-0.02970876343473792,0.35513036573231216
1647770114386125800,3.577125732421875,-0.1258446402400732,-0.10439955502077937,0.16193068362176416
1647770114396177000,3.587177001953125,0.053396659144759176,-0.2059906284920871,-0.16289339117407797
1647770114406227700,3.597227783203125,0.14925591096580026,-0.2085842251818627,-0.4450374311506748
1647770114416277800,3.60727783203125,0.27597674951851364,-0.19174239597432313,-0.6470002654314041
1647770114426328800,3.617328857421875,0.4253571636468172,-0.11780724506117403,-0.5235311221510172
1647770114436380000,3.6273798828125,0.5514361971646548,0.05582381322644651,-0.29051790056824683
1647770114446430000,3.637429931640625,0.5330050529390573,0.155162431595847,-0.12387129434049128
1647770114456480800,3.647480712890625,0.40761575525105,0.1727080251585692,-0.08951952740550041
1647770114466531800,3.65753173828125,0.25442192031443117,0.13319682963378726,-0.14239362398087976
1647770114476582000,3.667581787109375,0.2139648222416639,0.05837744323201477,-0.2010211695164442
1647770114486632700,3.6776328125,0.2095434986680746,-0.00926708310432732,-0.22846797936856744
1647770114496683800,3.687683837890625,0.17141747389137743,-0.04871997257061302,-0.2061836668461561
1647770114506733800,3.69773388671875,0.13608429470360278,-0.0674541913960129,-0.26222178041040894
1647770114516785000,3.707784912109375,0.1042290207594633,-0.0928477219801396,-0.2566261523604393
1647770114526836000,3.7178359375,0.04789630816280842,-0.08404708734378218,-0.18416472726166247
1647770114536885800,3.7278857421875,-0.049421325773000714,-0.06412110145054757,-0.07889584206044674
1647770114546936800,3.737936767578125,-0.16985329331457613,-0.02506510234735906,0.052934302330017086
1647770114556987000,3.74798681640625,-0.18349603421986102,0.013300503338873386,0.11561141551733016
1647770114567037700,3.75803759765625,-0.21448504672348498,0.021570830490812657,0.12427286087870597
1647770114577088800,3.7680888671875,-0.1943938603311777,0.030202611366286873,0.14649404503703117
1647770114587138800,3.778138916015625,-0.14924538957178593,0.06500650598295032,0.17422610157132148
1647770114597190000,3.78818994140625,-0.214632346239686,0.07061996195055543,0.23203707002699372
1647770114607241000,3.798240966796875,-0.1773971328228712,0.06918393779806792,0.2310930671751499
1647770114617290800,3.808290771484375,-0.03226034761369228,0.07807919191531837,0.10423428145647048
1647770114627341800,3.818341796875,0.03676701138317585,0.03122260206378996,-0.020692659416794774
1647770114637392600,3.828392578125,-0.005481646281480789,0.03358041723631322,0.026937691286206242
1647770114647443000,3.83844287109375,-0.12295476401746272,0.09560038168914615,0.11604396171569824
1647770114657493800,3.84849365234375,-0.2008902366131544,0.1190087298054248,0.12334113298654556
1647770114667544800,3.858544921875,-0.23690672188997267,0.1080884726665914,0.0972621043562889
1647770114677595000,3.868594970703125,-0.11333879441022872,0.12133118140362202,0.07065291437208653
1647770114687646000,3.87864599609375,-0.04472118525803089,0.13054923773445187,0.09097849404215812
1647770114697697000,3.888697021484375,-0.0969873790681362,0.11699030265510081,0.032256840482354165
1647770114707746800,3.898746826171875,-0.07801379852890968,0.11531762020252645,-0.04748889640569687
1647770114717797600,3.908797607421875,0.015205167916417121,0.1128741725731641,-0.13301964643597602
1647770114727848000,3.918847900390625,0.07373217568695545,0.10495075916275382,-0.18390987571775913
1647770114737898800,3.928898681640625,0.11211363652944564,0.1198087210766971,-0.2075298207581043
1647770114747949800,3.93894970703125,0.23557050485014913,0.11506919839940964,-0.24297113649547097
1647770114757999900,3.948999755859375,0.3143833448022604,0.10471293181888759,-0.203343474984169
1647770114768051000,3.959051025390625,0.26768296842575073,0.10454597775414586,-0.14886194321215152
1647770114778102000,3.96910205078125,0.18164251530766487,0.09310761502534151,-0.09827975696623324
1647770114788151800,3.97915185546875,0.07847557082176208,0.0870716227967292,-0.12522738512456416
1647770114798203000,3.989202880859375,0.011097732597589493,0.033467093054950235,-0.12461539070606231
1647770114808253700,3.999253662109375,-0.02306932542026043,-0.013896350340172647,-0.10884031394720077
1647770114818303700,4.0093037109375,0.023229484418034553,-0.020325798865780235,-0.1462491303652525
1647770114828354800,4.019354736328125,0.04244681058526039,-0.06830401315838099,-0.15390344451069832
1647770114838406000,4.029406005859375,0.015740005445480345,-0.06082293668799102,-0.18900281494259832
1647770114848456000,4.0394560546875,-0.010068974071741104,-0.05950878534950316,-0.15620587623417376
1647770114858507000,4.049507080078125,-0.027115385940670967,-0.05494162356443703,-0.0838771376043558
1647770114868556800,4.059556884765625,-0.07594108390808105,-0.05685140270851552,-0.03063303867280483
1647770114878608000,4.06960791015625,-0.19905892953276633,-0.06340279711335897,0.031736616000533104
1647770114888658700,4.07965869140625,-0.2536006670594215,-0.0631356706097722,0.05877367600798607
1647770114898708700,4.089708740234375,-0.25285832425951954,-0.05706884485147893,0.056958151018619535
1647770114908759800,4.099759765625,-0.2597352242916822,-0.06955043302290141,0.010293430477380752
1647770114918811000,4.109810791015625,-0.24864684404432771,-0.02815707701332867,0.032415245914459226
1647770114928861000,4.11986083984375,-0.1944675100892782,-0.012868395531922578,0.06517594426572322
1647770114938912000,4.129912109375,-0.041292379853129384,0.0032495763804763554,0.053548634836077684
1647770114948962800,4.139962890625,0.0513216064363718,0.05045315303876996,0.033330607193708416
1647770114959012900,4.150012939453125,0.026498130825161934,0.058790554077550766,0.03161795805692673
1647770114969063700,4.160063720703125,0.014988894817233084,0.10316730981208383,-0.0097205990254879
1647770114979114800,4.17011474609375,0.04061667254865169,0.12276552505567669,-0.0316758257240057
1647770114989164800,4.180164794921875,0.1472556770592928,0.12927797568961977,-0.03281096723377704
1647770114999215900,4.1902158203125,0.12368015568256377,0.1632566715285182,-0.0030862755775451656
1647770115009267000,4.200266845703125,-0.033874212551116945,0.18300328226685522,0.007188450199365615
1647770115019317000,4.21031689453125,-0.16968728909790515,0.18723193281255662,0.04733458262681961
1647770115029367800,4.220367919921875,-0.1582435195416212,0.17784933356977997,0.05372516044676304
1647770115039417900,4.23041796875,-0.004571545699238777,0.11869776416011155,-0.01617196712195873
1647770115049468700,4.24046875,0.192925541344285,0.043938145121559496,-0.11970774492025375
1647770115059519700,4.250519775390625,0.2771691741734743,0.009452741869539021,-0.18724691118597983
1647770115069569800,4.26056982421875,0.3204214559227228,-0.030163667595386502,-0.19715923339128494
1647770115079620900,4.270620849609375,0.2847270422071218,0.02667896728478372,-0.09103577718734741
1647770115089672000,4.280671875,0.050069560548663135,0.13042875315994024,0.07360241182744502
1647770115099722000,4.290721923828125,-0.14903905334472656,0.15132840639092027,0.15361118356585501
1647770115109772800,4.300772705078125,-0.0911754779189825,0.09641842007376253,0.05209025272130966
1647770115119824000,4.310823974609375,-0.0027507600128650663,-0.003707622346282005,-0.06093991413116455
1647770115129873700,4.320873779296875,-0.028132454028725624,-0.17105960036441684,-0.20503449681103228
1647770115139924700,4.3309248046875,0.06646423051059246,-0.1843640492260456,-0.4723129760891199
1647770115149975800,4.340975830078125,0.23642682941853999,-0.14944807253703474,-0.8738532108187675
1647770115160025900,4.35102587890625,0.2186491806656122,-0.3845759847188368,-1.5521686519682407
1647770115170077000,4.361076904296875,0.5694523308485746,-0.371924812134169,-2.4291847107321023
1647770115180127700,4.371127685546875,1.1386024638801813,-0.3800659234158695,-3.0427427252888677
1647770115190177800,4.381177734375,1.6663649399906395,-0.9649687752440571,-3.46646790381968
1647770115200228900,4.391228759765625,2.163680839911103,-1.411098970067501,-4.108431928649544
1647770115210278700,4.401278564453125,2.3058763109713794,-1.4832494295209646,-4.687632915574312
1647770115220329700,4.411329833984375,1.7879986845374107,-1.4903694906592369,-4.99230442917943
1647770115230380800,4.421380859375,1.183126080739498,-1.5415379523605108,-5.1270992685943835
1647770115240430800,4.431430908203125,0.9588222353130579,-1.946260616518557,-5.977181143203377
1647770115250482000,4.44148193359375,1.2997200775533915,-2.1682389416068792,-7.039148695692419
1647770115260532700,4.45153271484375,1.5773656370669602,-2.2846628425508735,-7.845700640654563
1647770115270583000,4.4615830078125,1.5911732131451368,-2.0566694949567315,-7.940648038327693
1647770115280633900,4.4716337890625,1.5912328343778848,-1.5456839661240578,-7.097567566913366
1647770115290685000,4.481684814453125,1.7995844929128884,-1.046663600373268,-5.947457620590925
1647770115300734700,4.491734619140625,2.0447084235280752,-0.626864801505953,-5.129482948860526
1647770115310785800,4.501785888671875,1.9932360104441642,-0.11432722092568874,-4.69190752415359
1647770115320836900,4.5118369140625,1.5141273828655482,0.20971067192852497,-4.147155919319391
1647770115330887000,4.521886962890625,0.9130284523874521,0.8570419228799641,-3.3393227023750542
1647770115340937700,4.531937744140625,0.4923538935989141,1.6468810718417166,-2.0979589522004125
1647770115350988800,4.54198876953125,0.34644495497345923,2.2166551819905638,-0.9346920026630162
1647770115361038800,4.552038818359375,0.33017128104269505,2.567186237233877,-0.3079600337564945
1647770115371090000,4.56208984375,0.11066811389625072,3.083211221538484,0.3285176686167717
1647770115381139700,4.5721396484375,-0.32486031515300273,3.514993449796736,1.1858014374285937
1647770115391190800,4.582190673828125,-0.7937333799213171,3.6504897154793143,2.153417804571986
1647770115401241900,4.592241943359375,-1.1565730048567056,3.3665301505133507,2.5239158353060485
1647770115411292000,4.6022919921875,-1.2683879507005213,3.301182064551115,2.6284675121486187
1647770115421343000,4.612343017578125,-1.4071423413962125,3.5127211209505793,3.126249860537052
1647770115431393800,4.622393798828125,-1.8895967722713947,3.6456337998807427,3.6089369311243296
1647770115441443800,4.63244384765625,-2.3081202905058857,3.5271827770233153,3.7048446982622143
1647770115451495000,4.642494873046875,-2.2100725887298585,3.2599113120079037,2.9511668498754497
1647770115461546000,4.6525458984375,-1.8207798411548137,2.812092141184211,2.237280036868155
1647770115471595800,4.662595703125,-1.617812798267603,2.474702599325776,1.9643162054300307
1647770115481646800,4.672646728515625,-1.5183710117846727,2.2516747651845215,1.8441221382975577
1647770115491697700,4.68269775390625,-1.5857190393924712,2.083138984209299,2.001217072325945
1647770115501748000,4.692748046875,-1.7937521334975957,2.187329134263098,2.5300366562739014
1647770115511798800,4.702798828125,-2.094437207815051,2.1587337388977406,3.0637022189483045
1647770115521849900,4.712849853515625,-2.0411399173915385,1.9354501764297485,2.887755284933746
1647770115531900000,4.72289990234375,-1.8632523707032203,1.7498609693229197,2.5884786161094904
1647770115541951000,4.732950927734375,-1.6008236695438622,1.5951926779195666,2.240559204669297
1647770115552000800,4.743000732421875,-1.2321616220653056,1.464632115073502,1.8287211555480956
1647770115562051800,4.7530517578125,-1.1448317136585713,1.3277338736385107,1.6264029319584368
1647770115572103000,4.76310302734375,-1.259891340512037,1.2895631329372526,1.5232915170520542
1647770115582153000,4.773153076171875,-4.596600645518302,1.5622154142081737,-0.048832127708196636
1647770115592203800,4.783203857421875,-2.646612825170159,0.6412526616901159,0.26873773817569013
1647770115602254800,4.7932548828125,-4.505893369632959,0.7233639586657286,0.13266250356137751
1647770115612305000,4.803304931640625,-2.9784961708277464,0.8617007084712386,1.1967322890266776
1647770115622356000,4.81335595703125,-1.276406421983242,0.2979559416145086,2.1087945267304775
1647770115632407000,4.823406982421875,-1.8987392791479825,0.6550397795021533,1.910532592794299
1647770115642456800,4.833456787109375,-2.342126605004072,0.5780310663625597,1.5650655429422855
1647770115652508000,4.8435078125,-2.0004080940306186,0.025668694263696668,0.9641767480835318
1647770115662559000,4.85355908203125,-1.5583254210323094,-0.11962445055097341,0.6378086587160825
1647770115672609000,4.863609130859375,-0.9827455472141504,-0.17895225331038236,0.726110334764421
1647770115682660000,4.87366015625,-0.25521102486550806,-0.17570991038829087,0.5961319557204843
1647770115692711200,4.883711181640625,0.24775720172822474,-0.3433300378233194,0.25814210988134145
1647770115702761200,4.89376123046875,0.33144320067465305,-0.4275961747452616,0.2690907893970609
1647770115712812300,4.903812255859375,0.2273287462055683,-0.37852994602024553,0.4637903546765446
1647770115722863000,4.913863037109375,0.4218038550794124,-0.3788412039265036,0.5241968925833702
1647770115732913000,4.923912841796875,0.9215537041485309,-0.4115551405265927,0.3943894861921668
1647770115742964000,4.9339638671875,1.6484703868597745,-0.2710395853772759,0.14579700268357992
1647770115753014000,4.944013916015625,1.9485411286711691,-0.194921099075675,0.13824439534693955
1647770115763065000,4.954065185546875,1.796245119357109,-0.36979894255399703,0.042776773191988464
1647770115773116200,4.9641162109375,1.789814209526777,-0.6120306588590144,-0.43207478146404027
1647770115783166200,4.974166259765625,1.2894810076117516,-0.6329805079072713,-0.7215645080283284
1647770115793217300,4.98421728515625,0.22910393918454647,-0.5460460285589098,-0.5803486956551671
1647770115803268000,4.99426806640625,-0.43887072521448134,-0.6132891344875097,-0.20342881518006323
1647770115813318000,5.00431787109375,-0.5442243660897016,-0.49534284628182645,0.21194325328618288
1647770115823369000,5.014368896484375,-0.32585107975602146,-0.3112178665086627,0.5601338828831911
1647770115833420000,5.024419921875,-0.09664952541589736,-0.23387480684816836,0.6494599335432052
1647770115843470000,5.034469970703125,-0.025388708278536794,-0.0673421823889017,0.6074664196833968
1647770115853521200,5.044521240234375,-0.23634499635398387,0.10176350742876529,0.7355190913617611
1647770115863572200,5.054572265625,-0.5166974767386913,0.28330314688384534,0.8903764755964279
1647770115873622300,5.064622314453125,-0.661935384234786,0.36467268558144567,0.8304919157370925
1647770115883673000,5.074673095703125,-0.7103460716605186,0.38133915822207926,0.704271135661006
1647770115893724200,5.08472412109375,-0.8172364205837249,0.40928865689933297,0.5583917153909802
1647770115903774000,5.09477392578125,-0.6223930629193782,0.19493074368685484,0.2853027962684631
1647770115913825000,5.104824951171875,-0.1706137562930584,0.04020984531342983,-0.2607467394217849
1647770115923875000,5.114875,-0.11585633018910885,0.028032500785589217,-0.3714709674194455
1647770115933926100,5.124926025390625,0.17971476211547852,-0.12661591687351464,-0.43112697921991344
1647770115943977200,5.134977294921875,0.22571897292137144,-0.3136895173192024,-0.589882832197845
1647770115954027300,5.14502734375,0.1850958706319332,-0.43754853670001026,-0.3706581897318363
1647770115964078000,5.155078125,0.7564543273627757,-0.33002047439515586,-0.05637099878042936
