time,seconds_elapsed,z,y,x
1647770141829465300,0.00746533203125,1.2251444367796183,0.5880953642591834,0.2925255871288478
1647770141839515400,0.017515380859375,1.5611819795072077,0.7517930575534701,0.1003667923733592
1647770141849566500,0.02756640625,2.054502087789774,1.0712187804371118,-0.0552493012741208
1647770141859617500,0.037617431640625,2.5597037725239993,1.172553541059792,0.3838743757881224
1647770141869667600,0.04766748046875,3.1842157272934912,0.7579805140167474,0.6781893305517732
1647770141879718400,0.057718505859375,3.9889895566672084,0.7332651749551296,0.7201762685403227
1647770141889769200,0.067769287109375,4.67489735264182,0.9136647044643759,0.8493449386365711
1647770141899820300,0.0778203125,4.916474404430389,0.8050824569314717,0.9623669221825897
1647770141909870300,0.087870361328125,4.92251485363841,0.7724488920912146,0.9150785167850554
1647770141919921400,0.09792138671875,4.981716399669647,1.238505438134074,0.39678208041712637
1647770141929972500,0.107972412109375,4.7922635028719895,1.3900921301349998,0.21651070733219385
1647770141940022500,0.1180224609375,4.708664013165235,1.7139938293889163,0.6753915165267884
1647770141950073600,0.128073486328125,4.691309558260441,1.6856757896602153,1.6865670394115149
1647770141960124400,0.13812451171875,4.9095115796804425,0.0686538495093584,1.6008153401069343
1647770141970174200,0.14817431640625,4.743463523867726,-0.29031419468969105,-0.47235374649092554
1647770141980225300,0.158225341796875,5.293137387534975,1.093277759771049,0.08431304480358957
1647770141990276400,0.1682763671875,5.3785547403186555,2.0541227330833673,-0.09746946349665522
1647770142000326400,0.178326416015625,1.9877210464149713,2.3356807898655534,-3.043668607962131
1647770142010377500,0.18837744140625,0.3117383832514286,2.5294094642862675,-0.4800995383121073
1647770142020428500,0.198428466796875,-0.5823696800887584,1.8793606249392032,2.376953880496323
1647770142030479400,0.208479248046875,-0.47710664010643955,1.2301751244232058,3.9670089032664895
1647770142040529400,0.218529296875,-0.6110808107882738,1.4273518934711813,4.231428778243065
1647770142050580500,0.22858056640625,1.3203168753802776,1.795733662703633,3.1549273812279104
1647770142060631600,0.238631591796875,4.348508512747287,2.263991810443997,3.948262117220461
1647770142070681300,0.248681396484375,6.087811847698688,3.3878210680842398,5.750183820909261
1647770142080732400,0.258732421875,6.028441959363222,3.6812358591377734,4.596815165051818
1647770142090783200,0.268783203125,6.884452054977417,-1.118684880489111,-0.6064928254108876
1647770142100833500,0.27883349609375,7.806454087415337,-0.4756248771160841,1.4981696430161595
1647770142110884400,0.28888427734375,5.453731854116916,2.644654969100654,1.8656975718982516
1647770142120935400,0.298935302734375,6.3434162557959555,-1.3282526368156076,-2.367948297872394
1647770142130986500,0.308986572265625,-0.9650900635361671,-0.5066869548559189,-4.225231677168607
1647770142141036500,0.31903662109375,-6.6293970974564544,3.309979703512788,-2.999727759426832
1647770142151087600,0.329087646484375,-3.396515246671438,2.538314655275643,-2.6409037998735903
1647770142161138400,0.339138427734375,-6.037903030669689,0.40776334702819583,-1.931028122203797
1647770142171188500,0.3491884765625,-9.133238697504996,-1.2575383476451039,-0.6957509984664618
1647770142181239300,0.3592392578125,-8.950361671966315,-2.399252221544087,3.8034301601767537
1647770142191290400,0.369290283203125,-9.626931730753183,-0.39007016168832775,1.8932013726346193
1647770142201340400,0.37934033203125,-7.189944237315654,-2.249600296998024,-0.16312836897373198
1647770142211391500,0.3893916015625,-6.46224487979412,-2.291327268876135,0.4329042180255055
1647770142221442600,0.399442626953125,-8.443039926338196,-4.529357539589703,1.068743622495234
1647770142231493400,0.409493408203125,-9.707625562146305,-6.298369491845369,0.06131985335946083
1647770142241543400,0.41954345703125,-10.934739837694167,-4.430692874959111,-1.1286416263580321
1647770142251594200,0.42959423828125,-10.17470706732273,-3.704429687720537,-1.6056873300574719
1647770142261645300,0.439645263671875,-8.351170620936156,-4.339567081400752,-2.145269569429755
1647770142271695400,0.4496953125,-7.295149409630894,-5.166498966568708,-2.627061737003922
1647770142281746400,0.459746337890625,-7.595923331275582,-5.460347472864389,-2.2746815467625856
1647770142291797500,0.469797607421875,-10.50619176905155,-5.301294390505552,-0.9710821435578166
1647770142301847600,0.47984765625,-10.407365484118461,-5.477471626144648,-0.046894876035302874
1647770142311898400,0.4898984375,-11.4103676374197,-4.963708449292183,0.7711895396798849
1647770142321949400,0.499949462890625,-11.126558879101276,-3.860148072698712,0.8953774256888777
1647770142332000500,0.51000048828125,-9.83106314124465,-3.926585415202379,-0.0778100561177358
1647770142342050300,0.52005029296875,-9.507987955942749,-4.301341103380918,-0.7419172679662704
1647770142352101400,0.530101318359375,-9.247975668275355,-4.299709118264913,-0.8754501246213913
1647770142362152400,0.54015234375,-8.672730140978098,-3.554545415723324,-1.165780832054466
1647770142372202500,0.550202392578125,-8.027203455230593,-2.7116616359248757,-1.745363657903671
1647770142382253300,0.56025341796875,-6.450486637461185,-2.1288199544101953,-2.235062360818684
1647770142392304400,0.570304443359375,-4.014050932687521,-1.5313585036516189,-2.3952096681550143
1647770142402355500,0.58035546875,-1.4263392092972993,-1.0011489266499876,-1.7256382360838352
1647770142412405500,0.590405517578125,0.7752952214330434,-1.0138149314776062,-2.203566860097647
1647770142422456600,0.60045654296875,2.6144535998433827,-0.6323609147042035,-1.803462795650959
1647770142432507400,0.61050732421875,3.4913223590910434,-0.046855274677276605,-1.4440721421256661
1647770142442557400,0.620557373046875,3.442238302448392,0.4405541482567787,-1.5103915573380886
1647770142452608300,0.630608154296875,3.4348441005438564,0.9204001501992344,-1.1493686995010823
1647770142462659300,0.640659423828125,3.5857243978410955,1.5497469777792692,-0.6840236627284437
1647770142472709400,0.65070947265625,4.3203117613106965,2.44548877980113,1.561132149016112
1647770142482760400,0.660760498046875,3.465585860288143,1.9475962490364909,-0.9994397115793079
1647770142492811500,0.6708115234375,3.613469898378849,1.7749828433588146,-2.476959730602801
1647770142502861600,0.680861572265625,4.364254363411665,2.2679653902500867,-1.7189596351027487
1647770142512912400,0.690912353515625,4.6650674480229615,2.8334657686024904,-1.439163619557023
1647770142522963500,0.70096337890625,5.088561740407347,3.1632752305954694,-1.7237553449466823
1647770142533014500,0.7110146484375,5.510931412675976,3.335501682782173,-2.1632612993247804
1647770142543064300,0.721064208984375,5.926382683858275,3.5733661437883972,-2.5296336284309624
1647770142553115400,0.731115478515625,6.188652395063638,3.8902632249772546,-2.5119661620542404
1647770142563166500,0.74116650390625,6.396068234053254,4.083968226261437,-2.212977077999711
1647770142573216500,0.751216552734375,6.458918950241804,4.133560232426226,-2.064710470332205
1647770142583267300,0.761267333984375,6.500495407733321,4.15996250166148,-1.9286049867101012
1647770142593318400,0.771318359375,6.788308725517988,4.124113481906056,-1.4502103526197374
1647770142603369500,0.781369384765625,7.100980590227246,4.104750025266409,-0.8331323472432791
1647770142613419500,0.79141943359375,7.270098555004596,4.265752488127351,-0.766595782148838
1647770142623470300,0.80147021484375,7.181348842927813,4.5612528532832854,-1.0201828590743243
1647770142633521400,0.811521484375,6.934160380998254,4.819264322522282,-1.2818931828312574
1647770142643571500,0.821571533203125,6.742532478249073,4.992689044582844,-1.413575589314103
1647770142653622300,0.831622314453125,6.667467008131742,5.102788418680429,-1.354317783050984
1647770142663673300,0.84167333984375,6.681817605045437,5.174065017908811,-1.2306028483159839
1647770142673723400,0.851723388671875,6.619696372175216,5.115456177073717,-1.0872861181408167
1647770142683774500,0.8617744140625,6.2625003060847515,4.999871065041423,-0.9291423326466232
1647770142693825500,0.871825439453125,5.737825274595618,4.8312061047285795,-0.667741147904098
1647770142703876600,0.881876708984375,5.269422749948501,4.704412200939655,-0.44606458224132656
1647770142713926400,0.891926513671875,5.049592835065722,4.663936398166418,-0.47604759604018176
1647770142723977200,0.901977294921875,5.09765865457654,4.5993268556118005,-0.5760569532779977
1647770142734028300,0.9120283203125,5.127958515772224,4.435540899512172,-0.805606919196993
1647770142744078300,0.922078369140625,4.894668815335631,4.240135231789946,-1.2877904241763054
1647770142754129400,0.93212939453125,4.468521962615847,4.21687184510231,-1.6314995244450867
1647770142764180500,0.942180419921875,4.082626456263661,4.217763825505972,-1.6224020257540046
1647770142774231600,0.9522314453125,3.5812802779138084,3.871411809512973,-1.6141567599780857
1647770142784281600,0.962281494140625,2.7703216224253175,3.524443415187299,-1.3587225938811898
1647770142794332400,0.97233251953125,1.9227625442922114,3.3688170924067493,-0.7593729912884533
1647770142804383500,0.982383544921875,1.2258353416532277,2.964242604547739,-0.1197762435792014
1647770142814433300,0.992433349609375,0.7476011588215827,2.218017994776368,0.6210351455044001
1647770142824484400,1.002484375,0.6573918955862522,1.3856009561955929,1.701465187205374
1647770142834535400,1.012535400390625,0.541416907453537,0.3723033265903592,2.638726163573563
1647770142844585500,1.02258544921875,-0.2873305027037859,-0.6554784631803632,3.1493846524089575
1647770142854636500,1.032636474609375,-1.9727818359583615,-1.2160276488661765,3.5194524750322103
1647770142864687400,1.042687255859375,-3.926334070789814,-1.4408566872105002,3.692499011430144
1647770142874738400,1.052738525390625,-5.669176685783267,-1.7186358099758623,3.8155005371987816
1647770142884788500,1.06278857421875,-7.056072357964515,-2.180429145616293,4.060858861091733
1647770142894839600,1.072839599609375,-8.369405950328707,-2.5379817700594662,4.325406454101205
1647770142904890400,1.082890380859375,-9.990503177094459,-2.523571259652078,4.78309615381509
1647770142914940400,1.0929404296875,-11.839742220014333,-2.3823016712650653,5.277341852509975
1647770142924991500,1.102991455078125,-13.017868300509452,-2.4127988085985184,5.302794273674488
1647770142935042300,1.113042236328125,-13.461749547362327,-2.7703277599051592,4.969838914871215
1647770142945092400,1.12309228515625,-13.781672406113147,-3.310073811537027,4.734838318863511
1647770142955143400,1.133143310546875,-14.501025960093736,-3.460402904692292,4.647289799270034
1647770142965194500,1.143194580078125,-15.684042150717973,-3.272943812060356,4.481828895695507
1647770142975245600,1.15324560546875,-16.672864972019195,-3.16148367100358,4.173081510953605
1647770142985295600,1.163295654296875,-16.58956125038862,-3.064230918997526,3.653688219259679
1647770142995346400,1.173346435546875,-14.925948823976515,-2.872443149511516,3.071629212555289
1647770143005397200,1.183397216796875,-12.215642402052879,-2.8029133939504622,2.35249047036916
1647770143015447300,1.193447265625,-9.113118285018205,-3.0264655442267654,1.7619903830558061
1647770143025498400,1.203498291015625,-6.230210147854685,-3.2265029634028672,1.450215759447217
1647770143035549400,1.213549560546875,-4.101134757378698,-3.416334922645986,1.2000767771489917
1647770143045599500,1.223599609375,-3.144126293489337,-3.5309511896461245,0.6304904446572065
1647770143055650600,1.233650634765625,-3.302915756475925,-3.236230868951976,-0.16486965968310832
1647770143065701400,1.243701416015625,-4.24902522521019,-2.5826614542633295,-0.9837263749450444
1647770143075752400,1.25375244140625,-5.237106288233399,-1.8047566348537802,-1.675219277575612
1647770143085802200,1.26380224609375,-5.665089708730578,-1.1896163195416332,-2.1810320799455045
1647770143095853300,1.273853271484375,-5.571490218535065,-0.7194537994846701,-2.5419074190706015
1647770143105904400,1.283904296875,-5.023589209759235,-0.25927754365205763,-2.759918594093621
1647770143115954400,1.293954345703125,-3.927215529799461,0.22853812199532986,-2.774213369166851
1647770143126005500,1.304005615234375,-2.4606325729191303,0.625612609487772,-2.594790283474326
1647770143136056300,1.314056396484375,-0.6212380476653575,0.83502839012295,-2.3710241981863973
1647770143146106400,1.3241064453125,1.1483522890001534,1.071570662614703,-2.267414770630002
1647770143156157400,1.334157470703125,2.7026801648288963,1.4387006782203913,-2.275762327736616
1647770143166208500,1.34420849609375,3.788224407738447,1.8418392880573868,-2.44847276404798
1647770143176259600,1.354259521484375,4.345832571536302,2.296020102867484,-2.673816473916173
1647770143186309400,1.364309326171875,4.483645297467708,2.7800346226662396,-2.8830060445800423
1647770143196360400,1.3743603515625,4.516996947449446,3.1945155875116584,-3.072028441005945
1647770143206411300,1.384411376953125,4.5378994502246375,3.6456922520697113,-3.2783629144996405
1647770143216461300,1.39446142578125,4.560446213075518,4.096603835950791,-3.5108111956760286
1647770143226512400,1.404512451171875,4.826349896869063,4.450013076978921,-3.781499191136658
1647770143236563500,1.4145634765625,5.3211225420475,4.682978367766737,-4.108312686184048
1647770143246613500,1.424613525390625,6.245366800454258,4.924076696127653,-4.0181960696682335
1647770143256664600,1.43466455078125,7.270948449832201,5.0551060455292465,-3.7397096754163504
1647770143266715600,1.444715576171875,8.083524477389455,5.13663808131218,-4.139029019226133
1647770143276766200,1.45476611328125,8.711410292506217,5.360930236300826,-4.252007455891371
1647770143286816300,1.464816162109375,9.194927968698739,5.486352267214656,-4.052519195030629
1647770143296867300,1.474867431640625,9.299377938732505,5.581023770555854,-3.772052732877433
1647770143306918400,1.48491845703125,9.28176161802113,5.376743306982517,-4.753605563175678
1647770143316968400,1.494968505859375,8.913855941867828,5.274194786655903,-5.407178192734718
1647770143327019500,1.50501953125,8.158976900997757,5.401825141268969,-5.577947431850433
1647770143337070600,1.515070556640625,7.499961788123845,5.455594725379347,-5.490587712827325
1647770143347120600,1.52512060546875,6.568892652133107,5.334971619179845,-5.48170064201653
1647770143357171500,1.53517138671875,4.892978378030658,5.314948237326741,-6.02913403328061
1647770143367222300,1.54522216796875,4.456211347097158,5.478811934837698,-6.0052341022551055
1647770143377273300,1.5552734375,4.887652799093723,5.653337311616539,-5.232621251773834
1647770143387323400,1.565323486328125,5.513972095546126,5.665017812538147,-4.908049105912447
1647770143397374500,1.57537451171875,6.192580966684222,5.552286336371302,-5.125812151393294
1647770143407425300,1.58542529296875,6.770303697749972,5.21487341363728,-5.437585021436214
1647770143417475600,1.5954755859375,6.923239758533239,4.9466789885580535,-5.383109919404983
1647770143427526400,1.6055263671875,6.937070715487003,4.557559259462356,-5.243416202032566
1647770143437577500,1.615577392578125,6.777821818295121,3.950581207817793,-4.860699033455551
1647770143447628500,1.625628662109375,5.691203808674216,3.2228152148008347,-4.061452443070709
1647770143457678300,1.63567822265625,3.9471237608402965,2.457740358608961,-3.384877123586833
1647770143467729400,1.6457294921875,2.3131752358078956,1.9408324539899824,-2.860687829788029
1647770143477780200,1.6557802734375,1.0536877999216316,1.5759680452287197,-2.3363065205484626
1647770143487830500,1.66583056640625,-0.06348316887319087,1.1617416396662592,-1.9088804416730998
1647770143497881300,1.67588134765625,-1.171434473901987,0.9014788843691348,-1.4150661201328039
1647770143507932400,1.685932373046875,-1.8838602744460105,0.596296498632431,-0.5669958776071667
1647770143517982500,1.695982421875,-2.490126378428936,-0.21367928329855201,0.42373248505443334
1647770143528033500,1.706033447265625,-3.665570087972283,-1.4387261049225926,1.4115937678471207
1647770143538084600,1.716084716796875,-5.015505856546759,-2.4149469265431165,2.2370704857707024
1647770143548135400,1.726135498046875,-6.439694609811902,-2.805665030746162,2.93429784040004
1647770143558185200,1.736185302734375,-8.102850524628161,-3.196891084471345,3.683639997670054
1647770143568236300,1.746236328125,-10.013598805999756,-3.8772830396339293,4.686863100245595
1647770143578287400,1.756287353515625,-12.344400883913039,-4.507036109927296,5.758749989202618
1647770143588337400,1.76633740234375,-14.884474657815694,-4.906536363261938,6.418170760267973
1647770143598388500,1.776388427734375,-17.34028141801357,-4.810452655035257,6.574613367867469
1647770143608439600,1.786439453125,-18.947330830204486,-4.314378571869432,6.452036789512634
1647770143618489600,1.796489501953125,-19.541892467868326,-3.97785266110301,6.504225241911411
1647770143628540400,1.80654052734375,-19.213967504447698,-3.7618861436501145,6.883118760547042
1647770143638591500,1.816591552734375,-18.772638280165193,-3.5446260792553423,7.104737896934151
1647770143648642300,1.826642333984375,-18.501646917843818,-3.2063121160283683,6.8978528038203715
1647770143658692400,1.8366923828125,-17.116984703803062,-2.7720249192118644,6.122521926552057
1647770143668743400,1.846743408203125,-14.31024619860649,-2.4353476172760127,5.124335064578056
1647770143678794800,1.856794677734375,-10.510046106392144,-2.0296355036891995,4.081738275252282
1647770143688844800,1.8668447265625,-6.74156684808731,-1.773212326554954,3.3588375501841305
1647770143698896000,1.876895751953125,-3.4727526831775903,-1.7221528781861066,2.919998681412637
1647770143708947000,1.886947021484375,-0.9557330371260643,-1.7267206244930624,2.6789091208800673
1647770143718997000,1.8969970703125,0.7760685438930988,-1.6548745548136532,2.8118016338050364
1647770143729048000,1.907048095703125,1.8321616513907908,-1.5121484840080142,3.3424145309105513
1647770143739099100,1.91709912109375,2.25287128149271,-1.2819298615798354,3.771323834080994
1647770143749149700,1.927149658203125,2.36391290487647,-0.8013309954434633,3.859917186552286
1647770143759199700,1.93719970703125,2.242673712605238,-0.07309300100058316,3.5448300773948427
1647770143769250800,1.947250732421875,2.200794472774863,0.7828887453019618,2.940353194916248
1647770143779302000,1.957302001953125,2.3544109170377254,1.4931304798051714,2.2576652377709747
1647770143789352000,1.96735205078125,2.5831045218557116,2.028759159246087,1.5274655878663062
1647770143799403000,1.977403076171875,2.713816475871205,2.4766747761815786,0.8999795857220888
1647770143809454000,1.9874541015625,2.8475965852856633,2.8697262917682527,0.3631929684177041
1647770143819504000,1.997504150390625,3.044208706188202,3.229438432332873,-0.16939225167408584
1647770143829555000,2.007554931640625,3.5632045229971405,3.473985732103884,-0.7792970044203102
1647770143839605800,2.017605712890625,4.384910197949409,3.652806760250032,-1.4687627851374447
1647770143849656800,2.02765673828125,5.196515919169784,3.8554587458387015,-2.010429283437878
1647770143859707000,2.037706787109375,5.993157880014181,4.002448757699132,-2.2675633853204546
1647770143869758000,2.047758056640625,6.5139762360751625,4.108835833275318,-2.3455668085858226
1647770143879809000,2.05780908203125,6.674992142939567,4.223993367545306,-2.2853056704990564
1647770143889859000,2.067859130859375,6.638963382703065,4.4311017480209465,-2.29525350240916
1647770143899910000,2.077909912109375,6.507628328353166,4.535792833334208,-2.2602739589646457
1647770143909961000,2.0879609375,6.080213063132763,4.700269694307446,-2.3456074328571557
1647770143920012000,2.098011962890625,5.563464732989669,4.854055065396428,-2.3817269401170313
1647770143930061800,2.108061767578125,5.24540299193561,4.794442015954852,-2.555708565407991
1647770143940113000,2.11811279296875,5.09939234650135,4.710658401852846,-2.7521143500834704
1647770143950164000,2.1281640625,4.985314131900668,4.604836558943987,-2.65622616442889
1647770143960214000,2.138214111328125,5.049390005970001,4.278233199515938,-2.0356661621555685
1647770143970264800,2.148264892578125,5.1627118492454285,4.219802053335309,-1.5389650331325828
1647770143980316000,2.15831591796875,5.398171294936537,4.5336856319218874,-1.7592726485297083
1647770143990366000,2.168365966796875,5.96033522234261,5.082593187391757,-2.1038453798905015
1647770144000417000,2.1784169921875,6.354302391469478,5.077131414854526,-2.716578634060919
1647770144010468000,2.188468017578125,6.536003358966112,4.398291657570004,-3.231086784061789
1647770144020519000,2.198518798828125,6.700912766137718,4.0318391028344625,-3.4147689885035155
1647770144030569000,2.20856884765625,6.62582566871047,3.9125557208061217,-3.1635680760622025
1647770144040619800,2.218619873046875,5.533115771955251,3.7615567655652757,-3.1510920408487317
1647770144050670800,2.2286708984375,5.56799419311285,3.5276012946963307,-4.015527142719924
1647770144060721000,2.238720947265625,6.683822515127062,3.1467846990436312,-3.624314532998204
1647770144070772000,2.24877197265625,7.983367236113548,2.0611200446248055,-1.7300234654307365
1647770144080823000,2.258822998046875,8.945116757050156,0.2418424247264862,0.444652815747261
1647770144090873000,2.268873046875,8.194692942023277,-2.3723311891317365,3.1989985781446095
1647770144100924000,2.278923828125,4.064977986848354,-5.139589916855097,6.9765399715662
1647770144110975000,2.28897509765625,-3.9105075561046596,-5.294550176942348,8.600311385977268
1647770144121025800,2.29902587890625,-11.923622280228138,-4.1882136136338115,8.988055150544643
1647770144131075800,2.309075927734375,-18.520369153970478,-1.8452929356426,9.280340060785413
1647770144141127000,2.319126953125,-21.5626384165287,-1.0389300835117696,10.126321514338255
1647770144151178000,2.329177978515625,-21.404868944239617,-1.9880054163143037,11.49971882252097
1647770144161228000,2.33922802734375,-22.01132677140236,-3.3856004694253206,11.61758766157627
1647770144171278800,2.34927880859375,-23.273566720867155,-2.9606846198052166,10.464064107418059
1647770144181330000,2.359329833984375,-22.70975327268839,-2.159283481734991,8.65379747697115
1647770144191380000,2.3693798828125,-21.405224333548546,-1.8188024036020038,6.4852668589413165
1647770144201431000,2.37943115234375,-19.872579881739615,-1.4862196775034069,4.710475446501374
1647770144211481900,2.38948193359375,-17.8659711795032,-1.294828798380494,3.973107804663479
1647770144221533000,2.399532958984375,-16.3112727167964,-0.9913266208156942,3.950808586832881
1647770144231583000,2.4095830078125,-15.084462977153063,-0.2127428792312741,3.372766122293472
1647770144241633800,2.4196337890625,-12.786617412424087,0.9266010506659745,2.6490640177145597
1647770144251684900,2.429684814453125,-10.297488228338956,2.1831503872737286,1.560187707772851
1647770144261735000,2.43973486328125,-8.406531858152151,3.8949551821857686,-0.19266484458148478
1647770144271786000,2.449785888671875,-6.773230983373522,5.6795963729888195,-1.9542253117874264
1647770144281837000,2.459837158203125,-5.167609558159112,6.67060472163558,-2.61236013469547
1647770144291887900,2.469887939453125,-3.1353835995852943,7.038977430778742,-2.177593922190368
1647770144301938000,2.47993798828125,-0.9512228662252425,6.955732161337137,-1.046654540283978
1647770144311988700,2.48998876953125,0.7972013482928275,6.417583315768837,-0.3254419144332409
1647770144322039800,2.500039794921875,1.9378835410565136,5.907025072437524,-0.6522662231355905
1647770144332089900,2.51008984375,2.3367653702318667,5.820239353910088,-1.8688848236322402
1647770144342141000,2.520140869140625,2.192923885530233,6.0560372377753255,-3.3368618652194737
1647770144352192000,2.53019189453125,0.9819161106526851,6.514186663955449,-4.614423010195791
1647770144362242000,2.540241943359375,-0.8327356030106544,7.3587231793969865,-5.122632352313399
1647770144372293000,2.550293212890625,-2.6159511449247597,8.107246713760494,-5.047836346787214
1647770144382344000,2.560343994140625,-3.99524306410402,8.501469903475046,-5.000999776810407
1647770144392395000,2.57039501953125,-5.290770658403635,8.247135661444068,-5.447857409125566
1647770144402444800,2.58044482421875,-4.963894327253103,8.669291398701072,-4.071831798265874
1647770144412496000,2.590495849609375,-4.388077137547731,8.938509906131028,-3.1989567848294973
1647770144422547000,2.600546875,-3.132335317930579,8.798805667364597,-2.330304065263271
1647770144432597000,2.610596923828125,-1.3241948858574033,7.959884653717279,-1.6358812466606496
1647770144442647800,2.620647705078125,0.8165411317959428,7.399771229100227,-1.5977780182376502
1647770144452699000,2.630698974609375,2.992424742937088,7.224478959602117,-2.0266282846972343
1647770144462749000,2.6407490234375,4.491253434383869,7.2330182398885485,-2.606864459888637
1647770144472800000,2.650800048828125,5.277035563039779,7.618920760503411,-3.676434304074943
1647770144482851000,2.66085107421875,5.330196075341105,8.775661523142457,-3.811697345523536
1647770144492902000,2.67090185546875,4.594944110482931,9.463175585269928,-3.3701915956303474
1647770144502952000,2.680951904296875,3.364828899553418,8.845391477450727,-2.933590861174464
1647770144513002800,2.691002685546875,2.161362626096606,8.20071351748705,-2.6516695240378376
1647770144523053800,2.7010537109375,0.9029707303620874,8.427548927217721,-2.5792761957392094
1647770144533103900,2.711103759765625,-0.28814649526178837,8.669725698465108,-2.4688398447722193
1647770144543155000,2.721155029296875,-0.6166442170690745,7.90520029284954,-2.2259709996074437
1647770144553206000,2.7312060546875,-0.2634890238672495,6.5854433894395825,-1.9080276242360472
1647770144563256000,2.741256103515625,-0.24397183797061442,5.512568073967099,-1.6832541154712437
1647770144573307000,2.751306884765625,-1.0397551361590622,5.19756572048366,-1.807593904106319
1647770144583357700,2.761357666015625,-2.629153156325221,5.538730689227581,-2.299233219695091
1647770144593408800,2.77140869140625,-4.097533518016338,5.7612190096646545,-2.3677745487406847
1647770144603458800,2.781458740234375,-4.788374094218016,5.642077081933618,-2.0037544818490742
1647770144613510000,2.791510009765625,-4.612064756631851,5.586368638715148,-1.6856468558266757
1647770144623561000,2.80156103515625,-3.9645559571564197,5.308944028475881,-0.7812085371300578
1647770144633611000,2.811611083984375,-3.111454442465305,4.64185140760839,1.1898209022030233
1647770144643662000,2.821662109375,-2.3822809207379816,3.6155355987370013,2.818917311029136
1647770144653713000,2.831712890625,-1.8406557773612438,3.056084437420964,3.0493603898629544
1647770144663762700,2.8417626953125,-1.3718494942188262,3.3226410321652886,2.2616160212233662
1647770144673813800,2.851813720703125,-1.2378234472192824,4.1929730831205845,0.5191217812761664
1647770144683864800,2.86186474609375,-1.7418458590410648,4.890242815586924,-0.02045242092013359
1647770144693916000,2.871916015625,-2.7098540019810198,5.191508320140838,0.36316578814983363
1647770144703966000,2.881966064453125,-3.567590190735459,5.376391424804925,0.3859656489789486
1647770144714017000,2.89201708984375,-3.2032106428816913,5.545531601414084,0.16028613128513097
1647770144724067800,2.90206787109375,-2.2988649709045887,5.923009408032894,-0.07976590289324521
1647770144734117600,2.91211767578125,-1.354649060831964,6.342289882114529,-0.025060206976532936
1647770144744168700,2.922168701171875,-0.6681304394826293,6.281184548288583,0.07342763978242874
1647770144754219800,2.9322197265625,-0.3996490141555667,6.001714111435413,0.20663141061365603
1647770144764270800,2.942270751953125,-0.27428338960409165,6.170749658626318,0.1121112984418869
1647770144774321000,2.95232080078125,-0.7772995469927787,6.492472260275483,-0.16299860511422157
1647770144784372000,2.9623720703125,-2.2615204518944023,6.697367640876769,-0.4395565155215561
1647770144794422800,2.9724228515625,-4.1856279810547825,6.491031413817406,-0.5176097692780196
1647770144804472800,2.982472900390625,-6.029747781264781,6.23115122809708,-0.3108440647602081
1647770144814524000,2.99252392578125,-7.254245152312516,6.138804368311167,0.018867051424831152
1647770144824575000,3.002574951171875,-8.032732447785138,6.036807052126527,0.6794884304516017
1647770144834624800,3.012624755859375,-8.43728589285612,5.900686517065763,1.930885644993186
1647770144844675800,3.02267578125,-8.116379868286847,5.912335453805327,3.138389503403008
1647770144854727000,3.032726806640625,-7.251544661182165,5.968064939811826,3.427422426110506
1647770144864777700,3.04277783203125,-6.10910656466186,6.10386515687704,3.045851212698221
1647770144874827800,3.052827880859375,-5.154227514016628,6.996686103016137,2.3373685968220235
1647770144884878800,3.06287890625,-5.123599151518941,9.415503148990869,3.7492505339607596
1647770144894930000,3.072929931640625,-5.659159149637818,8.522339088502525,1.4763044326886534
1647770144904980000,3.08297998046875,-5.825150506827235,6.7147314481318,-0.9186045720193534
1647770144915030800,3.09303076171875,-7.539394803845882,7.598238622480631,-1.5784204068168997
1647770144925081900,3.103081787109375,-9.045850336909293,8.809571391528845,-1.0628208813827484
1647770144935132000,3.1131318359375,-9.016770372897385,8.286399165818095,1.9703449642002582
1647770144945182700,3.1231826171875,-7.434994518172741,7.902927671742439,5.012732300180197
1647770144955233800,3.13323388671875,-4.544033422935009,7.15710988920629,8.867941162911057
1647770144965284900,3.143284912109375,-1.7596768454164267,5.23738510517478,15.625781684929132
1647770144975335000,3.1533349609375,0.6810913356035947,4.3587820694804185,20.286496198439597
1647770144985386000,3.163385986328125,1.8455916263282297,5.872763906395435,18.424850093889237
1647770144995436800,3.173436767578125,0.5878250228852033,7.390795895484089,13.869316787296533
1647770145005486800,3.18348681640625,-2.8563281732738015,9.265767345553636,7.747094135951995
1647770145015537700,3.19353759765625,-3.620410511296987,10.282836602652072,-0.7879343382537365
1647770145025588700,3.203588623046875,-2.6649101138830185,7.267659929680824,-11.369688421028851
1647770145035639800,3.213639892578125,-4.90212965273559,1.4898182865172624,-18.994255078464747
1647770145045689900,3.22368994140625,-4.2926019166082146,-4.8315334369868035,-27.826667247354983
1647770145055741000,3.233740966796875,-1.3637047662079333,-12.068815179538726,-37.12591016153097
1647770145065791700,3.243791748046875,8.326673308539391,-20.29411368770599,-34.09221349700689
1647770145075841800,3.253841796875,26.41213362666368,-26.60814953523874,-26.66056244404316
1647770145085892900,3.263892822265625,40.76244763176441,-32.377546590662,-17.085779418200254
1647770145095944000,3.27394384765625,46.22927979047298,-30.39200522637367,-5.914005432844162
1647770145105993700,3.28399365234375,44.23216021659374,-20.74261499557495,1.5999603307127952
1647770145116044800,3.294044921875,36.315980264568324,-10.007952324545382,4.1971956692516805
1647770145126096000,3.304095947265625,21.51793418240547,2.61475696670413,3.54260684838742
1647770145136146700,3.314146728515625,14.322560905778408,17.044665317523478,3.863061037535965
1647770145146196700,3.32419677734375,14.646789352768659,29.83743423831463,3.085192166222632
1647770145156247800,3.334247802734375,21.873905675137042,38.3009862068057,-10.31751161019206
1647770145166299000,3.344298828125,30.4840791144371,41.53326366195679,-31.035792959499357
1647770145176349000,3.354348876953125,33.04714213426113,31.783742493367193,-32.62889100322723
1647770145186400000,3.36439990234375,24.055801970696447,21.685909406888484,-16.983278828668592
1647770145196451000,3.374451171875,10.782566577976942,16.40071508731246,-2.8192987115621566
1647770145206501600,3.384501708984375,2.766054028108716,10.415865601438282,4.457797739505768
1647770145216551700,3.3945517578125,0.23772622157931325,5.739857657206058,6.219079682031273
1647770145226602800,3.404602783203125,-0.689196316125989,2.3060233182266354,5.733631330037117
1647770145236653800,3.41465380859375,-3.7312370306253433,-0.26042678675241765,7.300889414587616
1647770145246703900,3.424703857421875,-9.471839953240751,-0.017561594849452376,12.783448134738206
1647770145256755000,3.4347548828125,-14.514750534063577,-0.2353845538239926,16.250470749831198
1647770145266805800,3.4448056640625,-16.87606816174984,-0.14119462345466016,17.13269197602272
1647770145276856000,3.45485595703125,-14.635551334917544,0.4859319707926362,16.137290945374964
1647770145286906600,3.46490673828125,-10.5916675740242,0.1770758649792522,14.198871397745608
1647770145296957700,3.474957763671875,-5.250952442756295,-0.4904974520772695,11.594135474318266
1647770145307008800,3.4850087890625,-0.6794464910060167,-0.3173172062970698,7.568693963566422
1647770145317058800,3.495058837890625,1.8877876770228146,0.32109906292334195,3.505528579097986
1647770145327110000,3.50510986328125,2.1748148128658533,0.26378596098721024,0.5006634567826986
1647770145337160700,3.51516064453125,1.0694371577173472,-0.07824439241439103,-1.5663742874532938
1647770145347211000,3.5252109375,-0.28097499619722366,-0.5038675135210157,-2.7099218065202235
1647770145357261800,3.53526171875,-0.7231792497485876,-1.6721023145988583,-2.70767081272304
1647770145367313000,3.54531298828125,-1.1158619320228695,-2.9049986806795,-1.9928268451213835
1647770145377362700,3.55536279296875,-2.591735279817879,-2.746616629450023,-0.1563829863667488
1647770145387413800,3.565413818359375,-3.1133883331373333,-2.3169845649629828,1.780634877771139
1647770145397464800,3.57546484375,-2.5465818406224248,-2.234657287149131,3.5082898605048656
1647770145407515600,3.585515625,-1.5578388065591453,-2.0330662087902427,4.628339599606394
1647770145417565700,3.595565673828125,-1.2436474771976471,-2.049762784308195,4.837166474437713
1647770145427616800,3.60561669921875,-1.748372192069888,-2.042960703077912,4.835610477167368
1647770145437667800,3.615667724609375,-2.4567902182772756,-1.8645406569480896,4.321239397549629
1647770145447718000,3.6257177734375,-2.6592189165040847,-1.6729615617766975,3.162607706597447
1647770145457769000,3.63576904296875,-2.352119298969209,-1.8595105538263916,1.9548902054369448
1647770145467820000,3.645820068359375,-1.7460405342519283,-2.564070151039958,0.7946464031130075
1647770145477870800,3.655870849609375,-1.4629282337650655,-3.4114565029546617,-0.5465618691265582
1647770145487920600,3.665920654296875,-1.0872466629132629,-3.9157580239787695,-1.686028840881586
1647770145497971700,3.6759716796875,-0.29763007066100833,-4.767640226007997,-2.61319044803977
1647770145508022800,3.686022705078125,0.7151099250614643,-5.660747295612096,-2.703126155030727
1647770145518072800,3.69607275390625,1.582494524388015,-6.155833829045295,-2.4237685309022665
1647770145528124000,3.7061240234375,2.660559225197136,-6.324483007267117,-1.9752794979929922
1647770145538175000,3.716175048828125,2.9929274317622183,-5.978975040882825,-1.0170780249267817
1647770145548225000,3.72622509765625,2.4613188016176224,-4.831293490751087,-0.40623979072272776
1647770145558275800,3.73627587890625,1.45512428201586,-3.218619516676664,-0.37304713069498535
1647770145568327000,3.746326904296875,0.09365765012353658,-1.1001961608573794,-1.3083622336924075
1647770145578377700,3.756377685546875,-0.04026683619767427,0.9511053773254156,-2.355601588127017
1647770145588427800,3.766427734375,-0.0912720701612532,2.5337419405326247,-3.7561078525096177
1647770145598478800,3.776478759765625,0.013580781584978103,3.3486198152914644,-5.506446960738301
1647770145608530000,3.786530029296875,0.021851912454515694,3.3626194068104027,-7.116772033599019
1647770145618580000,3.796580078125,0.3226210117936134,3.478118594124913,-8.01217773553431
1647770145628630800,3.806630859375,1.68421696915403,3.787110893538594,-7.830964843815565
1647770145638681900,3.816681884765625,1.3188824586629866,3.7534330803424116,-6.2795081395089625
1647770145648733000,3.82673291015625,-0.3992881449539214,3.21547537343204,-4.02636096368432
1647770145658782700,3.83678271484375,-0.6622258916139603,3.1561931633800264,-2.5119027414292097
1647770145668833800,3.846833740234375,-0.7979588886618614,3.1070763735115525,-1.8354004871815441
1647770145678884400,3.85688427734375,-1.0661743565291166,2.680130479368567,-1.9265040689080952
1647770145688934100,3.86693408203125,-1.3554448873847722,2.1071838766634463,-2.0591373463749885
1647770145698985200,3.876985107421875,-1.7120821505486965,1.417438109961152,-1.9460241774141787
1647770145709036000,3.8870361328125,-1.896330464440584,0.8724328226268291,-1.5648077687889337
1647770145719086000,3.897086181640625,-1.9533073201596736,0.3269920664846897,-1.059319668328762
1647770145729137200,3.90713720703125,-1.9472585415147243,-0.23330782061517238,-0.22264438778162002
1647770145739188200,3.917188232421875,-1.8343407489955423,-0.7718617398530244,0.7269967622101307
1647770145749239300,3.9272392578125,-2.1684883863233027,-0.9805383925586938,1.7736106782227754
1647770145759289300,3.937289306640625,-2.555610365730524,-0.5419909079492092,2.39785609101057
1647770145769340200,3.947340087890625,-2.062093419701606,-0.36095454184114933,2.125019393083453
1647770145779391000,3.957390869140625,-1.0662399691112339,0.06253156723678112,2.107007351052761
1647770145789441000,3.96744091796875,-0.4091132272671908,0.8880173452496528,2.446568391731381
1647770145799492000,3.9774921875,0.19804368807561695,1.4529408004969357,1.9943021783709525
1647770145809543200,3.987543212890625,0.33489787117317316,1.85942959754467,1.0501952816307545
1647770145819594200,3.99759423828125,0.3344424555558711,2.2217010672032833,0.35584991217851636
1647770145829644300,4.007644287109375,-0.34865203656367955,2.241205978140235,-0.33857086059749125
1647770145839695000,4.017695068359375,-0.9579431143909692,2.4922160441845653,-0.9248328719496727
1647770145849746200,4.02774609375,-1.1556442726392298,2.393316109493375,-1.0256833561867476
1647770145859796200,4.037796142578125,-1.1435696578335017,2.021877583038807,-0.7785702975809574
1647770145869847000,4.047846923828125,-0.6787888308148831,1.398002757129073,-0.24813597191274164
1647770145879898000,4.057898193359375,-0.28916940856873985,0.8593225811630487,0.2897796494215727
1647770145889948200,4.0679482421875,-0.4536018458783626,0.32878771772980686,-0.07581891883313656
1647770145899999200,4.077999267578125,0.012654898911714552,0.597540361213684,0.9027706777453423
1647770145910050000,4.088050048828125,0.5443857671964913,0.48395606760978693,1.447714590281248
1647770145920101000,4.09810107421875,0.4247199617218226,0.2840413980305195,1.2275175956517457
1647770145930151200,4.108151123046875,0.010599793012812733,0.3194412127137184,0.8136760977536439
1647770145940202200,4.1182021484375,-0.1815395663898438,0.2443693128556013,0.6050403615802527
1647770145950253300,4.12825341796875,-0.20797113478481769,0.435076009106636,0.11825754611194134
1647770145960303000,4.13830322265625,-0.22341588361077008,0.8597574654489755,-0.542412932753563
1647770145970354200,4.148354248046875,-0.2317546728890389,0.8034305980712175,-0.8208978657007217
1647770145980405000,4.158405029296875,0.036474823503568767,0.41704409333169457,-0.7647492774993181
1647770145990456000,4.1684560546875,0.28720892215073107,0.293193841779232,-0.6139116503000259
1647770146000506000,4.178506103515625,0.43978491744995113,0.13438041339516638,-0.6029214697301387
1647770146010557200,4.18855712890625,0.51827809699364,-0.12864099296033382,-0.5455465546041727
1647770146020608300,4.198608154296875,0.5501286216974258,-0.3642261108577251,-0.3383043186157942
1647770146030658300,4.208658203125,0.5738636444848031,-0.5220587115108967,-0.08629764274954796
1647770146040709400,4.21870947265625,0.5023709182877093,-0.6666974840700626,0.18970014955699444
1647770146050760200,4.22876025390625,0.1432166308015585,-0.6127186411231755,0.21348551429212093
1647770146060811300,4.238811279296875,-0.12949030326604843,-0.5754197148203849,-0.022772388300299644
1647770146070861000,4.248861083984375,-0.2845797426909208,-0.6956301485657691,-0.2569774500161409
1647770146080912100,4.258912109375,-0.29616847367584703,-0.7378682848364114,-0.3177823395907879
1647770146090963200,4.268963134765625,-0.18833412190079687,-0.6360264514744282,-0.2471966452360153
1647770146101013200,4.27901318359375,0.07202354513816535,-0.5324012418270111,-0.20992109980881213
1647770146111064300,4.289064208984375,0.20233868185579776,-0.5020154559135437,-0.22840134387314318
1647770146121115100,4.299115234375,0.2425784108508378,-0.4159107053875923,-0.22131284691691397
1647770146131165200,4.309165283203125,0.2885053917020559,-0.3413233741760254,-0.13899696727991104
1647770146141216300,4.31921630859375,0.2637988935340196,-0.33067981508672234,-0.10049334136247634
1647770146151267000,4.32926708984375,0.26642500425390897,-0.294415492528677,0.002190203520655632
1647770146161318100,4.339318115234375,0.27579905486404893,-0.16228139675557612,0.04026186776161193
1647770146171368200,4.3493681640625,0.26404263916201887,-0.1198404313892126,0.039704233878850935
1647770146181419000,4.3594189453125,0.21185352917611597,-0.17187106287777423,0.061548985940217966
1647770146191470000,4.369469970703125,0.11542502609975636,-0.1348071143746376,0.08289338726401328
1647770146201520000,4.37952001953125,-0.0293440948408097,-0.04586977077126503,0.07131050149798393
1647770146211571200,4.3895712890625,-0.09920045200772583,-0.03988368209898471,0.03304652955532074
1647770146221622300,4.399622314453125,-0.1443962690401822,-0.05075988090038299,0.0007552022814750671
1647770146231673300,4.40967333984375,-0.08282967437803745,-0.03091536274552345,-0.06484452035427093
1647770146241723100,4.41972314453125,-0.006064926062151789,-0.0527419946283102,-0.07897825964689255
1647770146251774000,4.42977392578125,0.023708207845687865,-0.05148351899981499,-0.012642039430141448
1647770146261825000,4.439824951171875,-0.013920973324775696,0.022635610178112983,0.011128127735853194
1647770146271875000,4.449875,0.08647372996881604,0.04306698831021785,0.04590016590952873
1647770146281926100,4.459926025390625,0.09163739634230732,0.06718845313191414,0.00007949497699737548
1647770146291977200,4.469977294921875,-0.007728475360199809,0.0958025531977415,-0.0814244837552309
1647770146302028300,4.4800283203125,-0.11108780061304568,0.14678981311321257,-0.06498655917346477
1647770146312078300,4.490078369140625,-0.1664478687852621,0.2005716721832752,-0.08700316067039966
1647770146322129200,4.500129150390625,-0.16695647589452564,0.20013328076601028,-0.06711947954893112
1647770146332180200,4.51018017578125,-0.1109474422942847,0.2112298443198204,-0.027988077121973036
1647770146342230000,4.52022998046875,0.020521394503116606,0.15837971314191818,0.0708586660772562
1647770146352281000,4.530281005859375,0.14590367792844772,0.12422493008375167,0.21467969251275063
1647770146362332200,4.540332275390625,0.14080087489672005,0.07030863097906112,0.16930267369449137
1647770146372382200,4.55038232421875,-0.008937412758544087,0.11851648930907249,0.12091361357867716
1647770146382433300,4.560433349609375,0.01713233658671379,0.39481940204203125,0.4059767558723688
1647770146392484000,4.570484130859375,-0.12596731677167117,0.2823258262842893,0.14310147998929024
1647770146402535200,4.58053515625,-0.046225671536847944,0.3692185123175382,0.03444762852489948
1647770146412585200,4.590585205078125,-0.05501870738863945,0.4043243124902248,-0.057279638057947155
1647770146422636300,4.60063623046875,-0.07638298245668411,0.31306057176589963,-0.08154781787395476
1647770146432687400,4.610687255859375,-0.060474123250320554,0.17403145578205584,-0.01109656355381012
1647770146442737200,4.620737060546875,-0.057824485524371264,0.124136667278409,-0.01362929690182209
1647770146452788200,4.630788330078125,-0.04625555521845817,0.07072539508640766,-0.03971826240420341
1647770146462839000,4.640839111328125,0.007325228321552277,-0.0189531222730875,-0.052366731575131414
1647770146472890000,4.65089013671875,0.038137715214490886,-0.1314823538661003,-0.04604395829439163
1647770146482940200,4.660940185546875,0.026713819402456283,-0.16113105767667293,-0.015194646522402763
1647770146492991200,4.6709912109375,0.051503977265954015,-0.21092823102474212,-0.030208091259002683
1647770146503042300,4.681042236328125,0.1053348631095141,-0.26223814702332016,0.01928688427209854
1647770146513092400,4.69109228515625,0.13256722649335861,-0.22623276766240596,0.03428688500523567
1647770146523143200,4.70114306640625,0.0874199247777462,-0.20148761798441409,-0.003700608083605766
1647770146533194000,4.711194091796875,0.023208514695242047,-0.16166531068384646,-0.020990765580534934
1647770146543244000,4.721244140625,0.00008124854266643523,-0.13742460339665413,-0.056494040638208384
1647770146553295000,4.731295166015625,0.03548113629110157,-0.06233809049129486,-0.06663724898993968
1647770146563346200,4.74134619140625,0.0711766459852457,-0.0321112945318222,-0.07623802102804184
1647770146573397200,4.751397216796875,0.034433015477657314,-0.03364157283902168,-0.035815994268655775
1647770146583447300,4.761447265625,0.03335230756886303,-0.01563186889588833,-0.018515899899601937
1647770146593498000,4.771498046875,0.0307482625503093,-0.021849428236484527,-0.035008769538998605
1647770146603549200,4.781549072265625,0.008875307307764887,-0.04986848501861095,-0.033327684584259984
1647770146613599000,4.791598876953125,-0.030770985838770866,0.027160394126176834,-0.04406768978536129
1647770146623650000,4.801650146484375,-0.04034903458841145,0.047266193565726276,-0.05918284133076667
1647770146633701000,4.811701171875,0.05062668297477066,0.029381577306985852,-0.05049041630923748
1647770146643752200,4.821752197265625,0.1086346353072673,-0.0020756372302770613,-0.049937458601593966
1647770146653802200,4.83180224609375,0.07803067659847437,-0.045675124981999396,-0.0477881716132164
1647770146663853000,4.84185302734375,-0.014915318124368786,-0.022036475241184232,-0.010590367597341537
1647770146673904000,4.851904052734375,0.012395955714583396,0.007083820781111717,-0.022836101186275482
1647770146683954400,4.861954345703125,0.09144143537878989,-0.03342413069605827,-0.010770400339365004
1647770146694005500,4.872005615234375,0.11695004370994866,-0.0395662867128849,-0.023574352332949636
1647770146704056600,4.882056640625,0.06666647508442401,-0.03144610862135887,-0.03026888153553009
1647770146714106600,4.892106689453125,0.017333412116765975,-0.03448503792583942,-0.018562077128887175
1647770146724157700,4.90215771484375,-0.017588336725905537,-0.006839490631222724,-0.008738602250814437
1647770146734208500,4.91220849609375,-0.028602409628033638,0.035085341906547544,-0.009775544083118438
1647770146744259600,4.922259521484375,-0.022796353697776793,0.052046998101472855,0.01089957967698574
1647770146754309600,4.9323095703125,0.02630633458010852,0.03585924888849258,0.029379239219427106
1647770146764360400,4.9423603515625,0.0524064790636301,0.061575873947143554,0.03801379657387733
1647770146774411500,4.95241162109375,0.0032792408663779495,0.10371288793087005,0.045104631617665286
1647770146784461600,4.962461669921875,-0.0333176746468991,0.14086217662990091,0.029894787526130673
1647770146794512400,4.972512451171875,-0.05264489092938602,0.12445347814261913,0.017793430843949316
1647770146804563500,4.9825634765625,0.02474573419988155,0.08637421511709689,0.01055062010884285
1647770146814614500,4.992614501953125,0.0029342998862266537,0.05562777919769287,0.04825462008118629
1647770146824664600,5.00266455078125,-0.05626607710123062,0.04133329638540745,0.04568097020089626
1647770146834715600,5.012715576171875,-0.08749708166718483,0.041781624674797055,0.04097966064214706
1647770146844766700,5.0227666015625,-0.036944048450514674,0.01169043779373169,0.03559095334112644
1647770146854816500,5.03281640625,-0.009518865908309818,0.027274960416555402,0.0033148236364126202
1647770146864867300,5.042867431640625,-0.01089957967698574,0.005989011281728744,-0.027611645025014876
1647770146874918400,5.05291845703125,-0.03234035404734313,-0.028552725267410276,-0.017969956454634665
1647770146884968400,5.062968505859375,-0.02091412014774978,-0.011017068576812743,-0.050934652945399284
1647770146895019500,5.07301953125,-0.0012390402756631373,0.00532908606827259,-0.05716390272378921
1647770146905070600,5.083070556640625,0.052735491822287435,0.012329904741048812,-0.041945290803909296
1647770146915121700,5.09312158203125,0.1155745175730437,-0.015731822139024732,-0.0232709854722023
1647770146925171700,5.103171630859375,0.084483359869197,-0.019915829825401306,-0.07276829909086227
1647770146935222500,5.113222412109375,0.018779519271850585,-0.043787703800201416,-0.06288169584870339
1647770146945273600,5.123273681640625,0.003745104812458157,-0.03215805628299713,-0.025306875213980673
1647770146955323400,5.133323486328125,0.07304426648803054,-0.03763970256447792,-0.034951486393809315
1647770146965374500,5.14337451171875,0.11573599174506961,-0.07134381924569606,-0.039434184765815734
1647770146975425500,5.153425537109375,0.10278123310394585,-0.06652852791845798,-0.015427286234498024
1647770146985476600,5.1634765625,0.013274565180018544,-0.05570435156524181,0.0034410803645849226
1647770146995526700,5.173526611328125,-0.03793481305353343,0.007882862204313277,-0.024521277794241902
1647770147005577500,5.183577392578125,-0.03867255274355411,0.018449848926067353,-0.04633505019545555
1647770147015628500,5.193628662109375,-0.04631225384175777,0.015466449201107024,-0.043530514168739314
1647770147025678600,5.2036787109375,-0.022807459613680837,-0.04644377126693725,-0.046505146065354344
1647770147035729700,5.213729736328125,0.01326981593966484,-0.0665144993931055,0.03228723562061787
1647770147045780700,5.22378076171875,0.05468326488919556,-0.03783084122240543,0.05300736756622791
1647770147055831600,5.23383154296875,0.10800145197026431,-0.05515314742326736,0.05810089131295681
1647770147065881600,5.243881591796875,0.08673552271015941,-0.03593231412470341,0.055311552855372426
1647770147075932400,5.253932373046875,0.03498195459730923,-0.02280336796045303,0.01877367405295372
1647770147085983500,5.2639833984375,0.037086160334944725,-0.04057867862582207,0.008040683114528656
1647770147096033500,5.274033447265625,0.024813538739085195,0.013097966504096984,0.036653614136576654
1647770147106084600,5.284084716796875,-0.01613280415534973,0.06373977398276329,0.006288286489248275
1647770147116135700,5.2941357421875,-0.026872882421687245,0.07532675140202046,-0.003713467565178871
1647770147126185700,5.304185791015625,-0.012310030996799469,0.10285597884058952,-0.0675035104304552
1647770147136236500,5.314236572265625,-0.02411094342768192,0.10090309120714663,-0.06392974359691142
1647770147146287400,5.324287353515625,0.020667598040774462,0.06415478452444076,-0.0391220500767231
1647770147156338400,5.33433837890625,0.002658478619530797,0.03233750450313091,0.0014694880306720733
1647770147166388500,5.344388427734375,-0.07366663617007434,0.0813373899936676,0.031983284237980844
1647770147176439600,5.354439453125,-0.05203530766367912,0.06914543241858483,0.0012584756284952164
1647770147186490600,5.36449072265625,0.0007161123801022768,0.03755845402181148,-0.015629530808329583
1647770147196540700,5.374540771484375,-0.002809139136597514,0.05229951155781746,-0.0032867665857076642
1647770147206591500,5.384591552734375,-0.013547975293919443,0.020019874721765515,0.023792378997802732
1647770147216642600,5.394642578125,0.013118351704999804,0.014118541723489761,0.023714053064584732
1647770147226693600,5.404693603515625,0.03651157531738281,0.022277298259735106,0.007661328408122062
1647770147236743400,5.414743408203125,0.009638839026167988,-0.0071007719159126275,0.010755202770233153
1647770147246794500,5.42479443359375,-0.03552840949892998,-0.007207154899835586,-0.012498247045278549
1647770147256845600,5.434845458984375,-0.02510528822727501,-0.029093408015370366,-0.03568973754048347
1647770147266895600,5.4448955078125,-0.008023147457838059,-0.06789455557465553,-0.019826982498168944
1647770147276946400,5.454946533203125,-0.015480477726459503,-0.049780806735157966,-0.00044774376749992365
1647770147286997500,5.46499755859375,-0.002345686343312263,-0.053770168632268904,0.0012830255478620527
1647770147297048600,5.475048583984375,0.07191022095680237,-0.04088555261790752,-0.003955459627509117
1647770147307098600,5.4850986328125,0.1025999582529068,-0.03152794168591499,-0.02735094826221466
1647770147317149700,5.495149658203125,0.07080898171663284,0.001982113727927208,-0.042625674283504486
1647770147327200800,5.50520068359375,0.047058176838234066,-0.002738485053181648,-0.09017653000950812
1647770147337250600,5.51525048828125,-0.012881620339676736,0.01017243444621563,-0.08030570885837078
1647770147347301400,5.52530126953125,-0.04119702971987426,0.022799276307225225,-0.055635377982258795
1647770147357352400,5.5353525390625,-0.03379055285565555,-0.002190203520655632,-0.038593642288446424
1647770147367402500,5.545402587890625,0.002210077264904976,0.005863339075446129,-0.045989597758650774
1647770147377453600,5.55545361328125,0.043335283857584,-0.017327566897869108,-0.06627542994022369
1647770147387504600,5.565504638671875,0.0522889901638031,-0.05862286936044692,-0.06802899560928344
1647770147397555700,5.5755556640625,0.0113327103972435,-0.08740589625239371,-0.09714636902213096
1647770147407605800,5.585605712890625,-0.09175707719922065,-0.08457213413119316,-0.09891454773843288
1647770147417656600,5.595656494140625,-0.16093458525650203,-0.08715981253683566,-0.09147767573595046
1647770147427707400,5.605707275390625,-0.15887253816016017,-0.08461129709780216,-0.07784954787790775
1647770147437757400,5.61575732421875,-0.13856851273477078,-0.0937982276380062,-0.07256605451703071
1647770147447808500,5.62580859375,-0.09869769011735915,-0.12687515233159063,-0.04357435331046581
1647770147457859600,5.635859619140625,-0.08221987191662192,-0.16685060436725616,-0.026193010398745536
1647770147467910700,5.64591064453125,-0.0877682998239994,-0.14371172084212303,0.0038397242933511733
1647770147477960700,5.655960693359375,-0.084700655881688,-0.09896715470850467,-0.0011935936987400055
1647770147488011500,5.666011474609375,-0.16971132756061852,-0.055258945885300635,-0.050339609661698335
1647770147498062600,5.6760625,-0.27169509014394133,0.06063304013907909,-0.06083002401590347
1647770147508112400,5.6861123046875,-0.31650698589272797,0.11617255653142929,-0.025167759004235266
1647770147518163500,5.69616357421875,-0.19214001698978245,0.14746961207091808,0.07035539273023605
1647770147528214500,5.706214599609375,-0.04227737230248749,0.27541560850441454,0.1808399667531252
1647770147538264600,5.7162646484375,-0.006820201408863067,0.43484103130698204,0.19943769971728323
1647770147548315600,5.726315673828125,0.11625373200885951,0.49043081658184523,0.18353753527402877
1647770147558366500,5.736366455078125,0.26199852958116676,0.4884978026926517,0.18463994355797766
1647770147568417500,5.74641748046875,0.3684147947192192,0.4954927761465311,0.16876842068731784
1647770147578467600,5.756467529296875,0.4410152629625052,0.3845879308849573,0.16087211447954178
1647770147588518700,5.7665185546875,0.4810259324420243,0.23268238219320772,0.24489830516576766
1647770147598569700,5.77656982421875,0.5612415518641471,0.0906704510062933,0.3244078952103853
1647770147608619500,5.78661962890625,0.6197779119849205,-0.12873977715969084,0.2967851442694664
1647770147618670300,5.79667041015625,0.608400850989297,-0.29986499010622497,0.27333237248957154
1647770147628721400,5.806721435546875,0.577730329850316,-0.3095288905084133,0.19329495917856693
1647770147638772500,5.8167724609375,0.38413258833289143,-0.27243454686701296,0.08550620011091231
1647770147648822500,5.826822509765625,0.07011917282156646,-0.24417174445688722,-0.10220365241169929
1647770147658873600,5.83687353515625,-0.15488777937293052,-0.2253670907437801,-0.4402876062750816
1647770147668924700,5.846924560546875,-0.2836667194992304,-0.2792261067032814,-0.6442717172503472
1647770147678974700,5.856974609375,-0.4715548511981964,-0.31054712764024733,-0.6172972010850906
1647770147689025800,5.86702587890625,-0.5498655137818307,-0.29200726234316826,-0.35384734018445013
1647770147699076900,5.877076904296875,-0.3647756344992667,-0.35585634191930293,-0.030281741017103195
1647770147709128000,5.8871279296875,-0.0826227536290884,-0.45991059063374995,0.27379356026053425
1647770147719178000,5.897177978515625,0.17755897232107817,-0.47150516683757304,0.4693932892501354
1647770147729229000,5.90722900390625,0.5977789192099123,-0.4215004882186651,0.6685428196758031
1647770147739280000,5.91727978515625,0.8612474117457866,-0.20044541545510292,0.6996136652439833
1647770147749330000,5.927329833984375,1.20307815092206,0.061630234482884405,0.649396805179119
1647770147759380700,5.937380615234375,1.2223469150155781,0.2510743634521961,0.27611645025014875
1647770147769431800,5.947431884765625,0.9931483563501388,0.7443927181690931,-0.16871990537047385
1647770147779481900,5.95748193359375,0.6243553759682923,1.2042524553984404,-0.34799861415624617
1647770147789533000,5.967532958984375,0.04649170206189155,1.2987550319135188,-0.484690811625123
1647770147799584000,5.977583984375,-0.012167407655715941,1.1795628352999687,-0.5253390483558178
1647770147809634800,5.987634765625,0.2318909395545721,0.670661711525917,-0.6866027925014495
1647770147819684900,5.997684814453125,0.5699788389407098,0.19962065506875515,-0.713754418799281
1647770147829736000,6.00773583984375,0.7986435099251568,-0.22484277460873126,-0.6911649858504534
1647770147839787000,6.017787109375,0.9203402367055415,-0.7800000381231308,-0.4735018936127424
1647770147849836800,6.0278369140625,0.9761059630692005,-0.971718541765213,-0.13627426431775091
1647770147859887900,6.037887939453125,0.8679916253089904,-0.8405939152956008,0.12112053432762622
1647770147869939000,6.04793896484375,0.540028229574114,-0.6987000575304031,0.5077484466075897
1647770147879989800,6.05798974609375,0.20850246518254278,-0.532910360392928,0.9666881463825702
1647770147890039800,6.068039794921875,-0.010390607241541146,-0.143368606492877,1.1444219638139008
1647770147900091000,6.0780908203125,-0.22477044002488253,0.31625907554626465,0.7748088992208242
1647770147910142000,6.088141845703125,-0.5524778151720762,0.5212263523399829,0.08746376391947269
1647770147920192000,6.09819189453125,-0.9148147512823342,0.5194529129266738,-0.4433762199401855
1647770147930243000,6.1082431640625,-0.9671418814994395,0.37297815711200233,-0.6884218246221542
1647770147940294100,6.118294189453125,-1.06231198201254,0.07879764238297939,-0.686450816810131
1647770147950344000,6.128343994140625,-1.0310032360352575,-0.2618476864010095,-0.5619283650845289
1647770147960394800,6.138394775390625,-0.5958305616211146,-0.5206880076795816,-0.4630494731813669
1647770147970445800,6.14844580078125,0.04202186317145824,-0.7771990092277526,-0.15789514449536798
1647770147980497000,6.158496826171875,0.5980657002620399,-1.0569763200730085,0.17480594728589058
1647770147990547000,6.168546875,1.2206383575320243,-1.0467425108283757,0.04782499649226665
1647770148000598000,6.178597900390625,1.2533723140068351,-0.7478472425371409,0.18462708407640457
1647770148010649000,6.188649169921875,-0.20059329949319363,-0.20079320597946643,-0.11872808623313903
1647770148020699100,6.19869921875,-1.620755281460285,0.2695627908229828,-1.3772680121362209
1647770148030750000,6.20875,-2.112359233474731,0.8191103977620601,-1.198159983742237
1647770148040800800,6.21880078125,-0.809961899536103,0.78065411811769,-0.5982756897509097
1647770148050851800,6.228851806640625,-0.9755722945839166,0.7380734520196914,-0.02034779150187969
1647770148060902000,6.23890185546875,-1.8648539606809615,0.41857437163889405,0.3057201458752155
1647770148070953000,6.248952880859375,-0.9533001108907163,0.7883078477412462,-1.6039935317516325
1647770148081004000,6.259004150390625,0.1527788243949413,1.1729308499395847,-2.5212673666238783
1647770148091054000,6.26905419921875,1.2261924845278263,0.9569202010840177,-1.7871487897098064
1647770148101105000,6.27910498046875,1.1856576450437306,0.9193015413075685,-0.5355839635163545
1647770148111156000,6.289156005859375,0.877537452289462,0.46617608076930045,0.4044423859119415
1647770148121207000,6.29920703125,0.8268021213084459,0.3558569264411926,0.7269646135061979
1647770148131256800,6.3092568359375,0.6098283265091479,0.2821837874650955,0.5632400322049855
1647770148141308000,6.319307861328125,0.5035258604764938,0.42959260925948617,-0.16308628339767456
1647770148151358700,6.329358642578125,0.24860366248972712,0.7033803243011236,-0.6724024177134037
1647770148161409000,6.339408935546875,-0.5250695837646723,0.5992606091350317,-0.25568273403048514
1647770148171459800,6.3494599609375,-1.0302536597769707,0.08292202883660793,0.1278401979714632
1647770148181511000,6.359510986328125,-1.1028355694502592,0.015379355439543723,0.4342226071476936
1647770148191561000,6.36956103515625,-1.1986609190016984,-0.009688450321555138,0.6331546954303979
1647770148201612000,6.379612060546875,-0.8678899185001849,-0.10972060391306876,0.5877139637261629
1647770148211663000,6.3896630859375,-0.5956815816044807,-0.03808803085386753,0.7716559881478547
1647770148221714000,6.3997138671875,-0.3688111005604267,-0.19024609300196169,0.923239465278387
1647770148231763700,6.409763671875,0.004248341626860201,-0.31517011126577854,0.9378022436380385
1647770148241814800,6.419814697265625,0.1998795982658863,-0.11290332560241222,0.580468230381608
1647770148251865900,6.429865966796875,0.4224807679602876,0.008177461236715316,0.38130993212759495
1647770148261916000,6.439916015625,0.4774234875032678,-0.018602993661165235,0.4020370783358812
1647770148271967000,6.449967041015625,0.5152723758390173,0.03156710465252399,0.14407295536994932
1647770148282018000,6.46001806640625,0.5019522910168395,-0.13588906439244747,-0.029203298130631446
1647770148292068900,6.47006884765625,0.569158243272826,-0.4380886349260807,0.1016319900035858
1647770148302119000,6.480118896484375,0.5012321235161274,-0.5341740967184305,0.32291619534790517
1647770148312170000,6.490169921875,0.11447868516035377,-0.5400614011913538,0.3378782021582126
1647770148322220800,6.500220703125,-0.2481903324484825,-0.41397769149839875,0.22342589354813097
1647770148332270800,6.510270751953125,-0.35856099776811895,-0.4366197314172983,0.3474187684416771
1647770148342322000,6.520322021484375,-0.288209112169221,-0.47998307232558723,0.2945154457718134
1647770148352373000,6.530373046875,-0.6513000815171748,-0.2689075417846441,-0.10105097524523735
1647770148362423800,6.540423828125,-0.924811829161644,-0.039489129823446274,-0.23927111293375491
1647770148372473900,6.550473876953125,-0.8018751853227615,0.02493453477025032,-0.22228023064434527
1647770148382525000,6.56052490234375,-0.6630152153607457,-0.08464753745496273,-0.09903379020392894
1647770148392576000,6.570575927734375,-0.4533749052546918,-0.06695405985414982,0.027055764707922935
1647770148402625800,6.580625732421875,-0.15306056394577025,-0.05272562801539898,-0.07160685409605502
1647770148412676900,6.5906767578125,0.025555223951861262,0.08149228829443454,-0.012964695513248442
1647770148422728000,6.60072802734375,0.031374650820344685,0.07874240506440401,0.20948855361044405
1647770148432778000,6.610778076171875,-0.2032348269779235,-0.021046587421000004,0.48340310990214347
1647770148442828800,6.620828857421875,-0.38345088967904445,0.06852174756228924,0.4996937349677086
1647770148452880000,6.6308798828125,-0.3564752044700086,0.15071604664623736,0.20594985809028146
1647770148462931000,6.640930908203125,-0.37147893153019246,0.29074031114727256,-0.09450082294940948
1647770148472981000,6.65098095703125,-0.39624972710609435,0.38670331560373306,-0.2935346180409193
1647770148483032000,6.661031982421875,-0.15020692808032035,0.35768647995591163,-0.37954058436751364
1647770148493083000,6.671082763671875,0.2924539831973612,0.38104923536479474,-0.31975217835903164
1647770148503133000,6.6811328125,0.5414484716355801,0.40209874539524315,0.2403998247027397
1647770148513183700,6.691183837890625,0.131295452991873,0.24450199932456015,1.1858394313514231
1647770148523234800,6.70123486328125,-0.3483259464144707,-0.21293547919392586,1.3499264162242413
1647770148533286000,6.711285888671875,-0.6131213767051696,0.027544425007700917,0.7273661800444126
1647770148543336000,6.7213359375,-0.05306421231999993,0.2319213346928358,-0.052284313988685605
1647770148553387000,6.731386962890625,0.1576737568296492,0.1664613127887249,-0.35401977414190766
1647770148563437800,6.741437744140625,-0.05798442532643675,0.23312194265425204,-0.3510118244975805
1647770148573487900,6.75148779296875,-0.26719445425644517,0.08375409574657679,-0.16739011807143686
1647770148583539000,6.7615390625,-0.3902268135547638,-0.10810498540997504,0.10518179143965244
1647770148593590000,6.771590087890625,-0.32935236587524414,-0.26841011365652084,0.3419359531164169
1647770148603639800,6.781639892578125,-0.20193375431671737,-0.4423074216648936,0.3109545393973589
1647770148613691000,6.79169091796875,-0.21251243147626517,-0.4794093640908599,0.13696166206002233
1647770148623742000,6.801741943359375,-0.2323534424997866,-0.43892099409699437,-0.06412848103940487
1647770148633792800,6.811792724609375,-0.08011924637556075,-0.2332680731266737,-0.15518705458045004
1647770148643842800,6.8218427734375,0.14022080998644232,-0.0794572753354907,-0.2162929729282856
1647770148653894000,6.831893798828125,0.31752968000397086,-0.01301145726442337,-0.2516121235907078
1647770148663945000,6.841945068359375,0.5305187890812755,0.07873480627983807,-0.39227497825622554
1647770148673995000,6.8519951171875,0.5356416850529611,0.19825112028121947,-0.5326169304043055
1647770148684045800,6.8620458984375,0.5227962320052087,0.13450988499373195,-0.25984686797261236
1647770148694097000,6.872096923828125,0.34603915065154434,0.03234393424391746,-0.06808627875447273
1647770148704147700,6.882147705078125,0.03630100130662322,0.0418473833873868,-0.040996027255058284
1647770148714197800,6.89219775390625,-0.02567585465684533,-0.015086802233755588,-0.04560907400846481
1647770148724248800,6.902248779296875,0.6492389842689037,0.16253946316987275,-0.11289280420839785
1647770148734300000,6.9122998046875,1.0339688078425824,0.0911383607789874,0.1816062749505043
1647770148744349700,6.922349609375,0.6238298177242279,-0.2899257798939943,0.5543921243607998
1647770148754400800,6.93240087890625,-0.38010888577476143,-0.2974453617438674,0.6600234131336212
1647770148764451800,6.942451904296875,-0.9460967553831636,-0.4020274337247014,0.43844694684445856
1647770148774502700,6.952502685546875,-0.4845766837261617,-0.46573125961124895,0.24674539433717727
1647770148784552700,6.962552734375,-0.2272457440972328,-0.3054647098094225,0.11935410917699336
1647770148794603800,6.972603759765625,-0.6446728453971445,-0.4357528854548931,0.013342881175875662
1647770148804654800,6.98265478515625,-0.816577956674993,-0.13579729445576666,-0.13232055825591085
1647770148814705000,6.992704833984375,-0.44684813383445143,0.733807026746869,-0.5612509042143822
